Time,Marker0_ID,Marker0_x,Marker0_y,Marker0_z,Marker1_ID,Marker1_x,Marker1_y,Marker1_z,Marker2_ID,Marker2_x,Marker2_y,Marker2_z,Marker3_ID,Marker3_x,Marker3_y,Marker3_z,thetaR,thetaL,dutyR,dutyL,wx,wy,wz,ax,ay,az,Vbatt
1671151527.805744,0,0,0,0,0,0,0,0,0,0,0,0,0,0,0,0,0,0,0,0,0,0,0,0,0,0,0
1671151527.8158238,0,-72.7353515625,196.7421875,113.40771484375,1,15.1837158203125,116.668212890625,-261.78076171875,2,68.3502197265625,117.48388671875,-266.171142578125,3,208.757568359375,195.95849609375,91.042724609375,0,0,0,0,0,0,0,0,0,0,0
1671151527.8258357,0,-72.69921875,196.587646484375,113.406005859375,1,15.16943359375,116.62158203125,-261.7451171875,2,68.3668212890625,117.427734375,-266.11328125,3,208.671630859375,195.953125,91.01953125,0,0,0,0,0,0,0,0,0,0,0
1671151527.8357694,0,-72.654296875,196.750244140625,113.35009765625,1,15.1942138671875,116.632568359375,-261.71435546875,2,68.3636474609375,117.431640625,-266.133056640625,3,208.737060546875,195.90966796875,91.03076171875,0,0,0,0,0,0,0,0,0,0,0
1671151527.8457718,0,-72.70660400390625,196.709228515625,113.302001953125,1,15.1973876953125,116.640380859375,-261.714599609375,2,68.380126953125,117.447509765625,-266.173095703125,3,208.744140625,195.963623046875,91.041015625,0,0,0,0,0,0,0,0,0,0,0
1671151527.855767,0,-72.76318359375,196.72314453125,113.333984375,1,15.1790771484375,116.61376953125,-261.737548828125,2,68.3336181640625,117.436767578125,-266.16845703125,3,208.7073974609375,195.95654296875,91.034423828125,0,0,0,0,0,0,0,0,0,0,0
1671151527.8657372,0,-72.60040283203125,196.761474609375,113.370849609375,1,15.17724609375,116.623291015625,-261.751708984375,2,68.335693359375,117.357421875,-266.15771484375,3,208.7283935546875,195.90380859375,91.0322265625,0,0,0,0,0,0,0,0,0,0,0
1671151527.875868,0,-72.69183349609375,196.794189453125,113.34033203125,1,15.1844482421875,116.617919921875,-261.738037109375,2,68.35302734375,117.41552734375,-266.176025390625,3,208.7095947265625,195.97314453125,91.03173828125,0.0,0.0,0.0,0.0,-0.28444444444444444,-0.0033333333333333335,-0.0,-0.18,1.81,9.6,11.72498816
1671151527.8858783,0,-72.69207763671875,196.798583984375,113.3740234375,1,15.206787109375,116.610595703125,-261.71337890625,2,68.34814453125,117.415771484375,-266.15869140625,3,208.6885986328125,195.927734375,91.051513671875,0.0,0.0,0.0,0.0,-0.28444444444444444,-0.0033333333333333335,-0.0,-0.18,1.81,9.6,11.72498816
1671151527.895817,0,-72.69110107421875,196.711181640625,113.36669921875,1,15.199951171875,116.621337890625,-261.74658203125,2,68.379150390625,117.419921875,-266.136962890625,3,208.7060546875,195.9287109375,91.03662109375,0.0,0.0,0.0,0.0,-0.28444444444444444,-0.0033333333333333335,-0.0,-0.18,1.81,9.6,11.72498816
1671151527.9057922,0,-72.7430419921875,196.7578125,113.33837890625,1,15.15576171875,116.654296875,-261.778564453125,2,68.351318359375,117.4267578125,-266.138916015625,3,208.7001953125,195.956298828125,91.02294921875,0.0,0.0,0.0,0.0,-0.28444444444444444,-0.0033333333333333335,-0.0,-0.18,1.81,9.6,11.72498816
1671151527.915801,0,-72.6727294921875,196.732421875,113.3798828125,1,15.1917724609375,116.604736328125,-261.728271484375,2,68.3468017578125,117.416748046875,-266.142578125,3,208.684814453125,195.9541015625,91.016357421875,0.0,0.0,0.0,0.0,-0.28444444444444444,-0.0033333333333333335,-0.0,-0.18,1.81,9.6,11.72498816
1671151527.9259055,0,-72.6717529296875,196.76416015625,113.37353515625,1,15.1859130859375,116.677734375,-261.74267578125,2,68.366455078125,117.3828125,-266.1357421875,3,208.69189453125,195.971435546875,91.010986328125,0.0,0.0,0.0,0.0,-0.28444444444444444,-0.0033333333333333335,-0.0,-0.18,1.81,9.6,11.72498816
1671151527.9358726,0,-72.63983154296875,196.75634765625,113.403076171875,1,15.180908203125,116.678466796875,-261.7529296875,2,68.3856201171875,117.420654296875,-266.100341796875,3,208.6998291015625,195.912841796875,91.024169921875,0.0,0.0,0.0,0.0,-0.28444444444444444,-0.0033333333333333335,-0.0,-0.18,1.81,9.6,11.72498816
1671151527.9458773,0,-72.61199951171875,196.74755859375,113.3193359375,1,15.1688232421875,116.638671875,-261.741455078125,2,68.3477783203125,117.400390625,-266.1201171875,3,208.697509765625,195.936767578125,91.045166015625,0.0,0.0,0.0,0.0,0.0011111111111111111,-0.0,-0.0011111111111111111,-0.18,1.83,9.59,11.72498816
1671151527.9558597,0,-72.67138671875,196.75537109375,113.339111328125,1,15.171630859375,116.637939453125,-261.737548828125,2,68.3468017578125,117.41259765625,-266.15185546875,3,208.7220458984375,195.93994140625,91.02587890625,0.0,0.0,0.0,0.0,0.0011111111111111111,-0.0,-0.0011111111111111111,-0.18,1.83,9.59,11.72498816
1671151527.9658663,0,-72.66912841796875,196.788330078125,113.417236328125,1,15.1754150390625,116.600341796875,-261.74267578125,2,68.359619140625,117.40966796875,-266.11328125,3,208.7196044921875,195.939453125,91.05908203125,0.0,0.0,0.0,0.0,0.0011111111111111111,-0.0,-0.0011111111111111111,-0.18,1.83,9.59,11.72498816
1671151527.9758756,0,-72.62127685546875,196.803955078125,113.387451171875,1,15.186279296875,116.658447265625,-261.75244140625,2,68.3521728515625,117.456298828125,-266.177001953125,3,208.7239990234375,195.979248046875,91.062744140625,0.0,0.0,0.0,0.0,0.0,-0.0,0.0011111111111111111,-0.2,1.8,9.65,11.711814016
1671151527.9858701,0,-72.6202392578125,196.722412109375,113.386962890625,1,15.1761474609375,116.603515625,-261.73779296875,2,68.3516845703125,117.43359375,-266.1728515625,3,208.7091064453125,195.917724609375,91.01806640625,0.0,0.0,0.0,0.0,0.0,-0.0,0.0011111111111111111,-0.2,1.8,9.65,11.711814016
1671151527.9958246,0,-72.6529541015625,196.71484375,113.35693359375,1,15.190673828125,116.635009765625,-261.736572265625,2,68.3690185546875,117.439697265625,-266.155029296875,3,208.6934814453125,195.957275390625,91.03662109375,0.0,0.0,0.0,0.0,0.0,-0.0,0.0011111111111111111,-0.2,1.8,9.65,11.711814016
1671151528.0058055,0,-72.66387939453125,196.684326171875,113.37353515625,1,15.1778564453125,116.626708984375,-261.765625,2,68.3502197265625,117.43994140625,-266.149169921875,3,208.7252197265625,195.9716796875,91.05078125,0.0,0.0,0.0,0.0,0.0,-0.0,0.0011111111111111111,-0.2,1.8,9.65,11.711814016
1671151528.0157423,0,-72.61590576171875,196.730224609375,113.368408203125,1,15.1884765625,116.649658203125,-261.76953125,2,68.365234375,117.421142578125,-266.12109375,3,208.7239990234375,195.9775390625,91.0283203125,0.0,0.0,0.0,0.0,0.0,-0.0,0.0011111111111111111,-0.2,1.8,9.65,11.711814016
1671151528.0258675,0,-72.64862060546875,196.689697265625,113.39306640625,1,15.2041015625,116.660888671875,-261.7568359375,2,68.356201171875,117.42626953125,-266.138671875,3,208.6722412109375,195.9853515625,91.037353515625,0.0,0.0,0.0,0.0,0.0,-0.0,0.0011111111111111111,-0.2,1.8,9.65,11.711814016
1671151528.0357726,0,-72.681396484375,196.73828125,113.40185546875,1,15.1993408203125,116.647705078125,-261.73486328125,2,68.3525390625,117.406494140625,-266.12451171875,3,208.7003173828125,195.912109375,91.016357421875,0.0,0.0,0.0,0.0,0.0,0.0011111111111111111,0.0022222222222222222,-0.18,1.82,9.58,11.721694624000001
1671151528.045752,0,-72.66021728515625,196.781982421875,113.3583984375,1,15.1802978515625,116.64794921875,-261.755126953125,2,68.3409423828125,117.39892578125,-266.16259765625,3,208.67626953125,195.979248046875,91.02001953125,0.0,0.0,0.0,0.0,0.0,0.0011111111111111111,0.0022222222222222222,-0.18,1.82,9.58,11.721694624000001
1671151528.0557504,0,-72.67822265625,196.744384765625,113.3505859375,1,15.1728515625,116.640869140625,-261.734130859375,2,68.330078125,117.427734375,-266.15966796875,3,208.7088623046875,195.993408203125,91.041015625,0.0,0.0,0.0,0.0,0.0,0.0011111111111111111,0.0022222222222222222,-0.18,1.82,9.58,11.721694624000001
1671151528.0657341,0,-72.66064453125,196.777587890625,113.3857421875,1,15.197265625,116.653564453125,-261.74365234375,2,68.339111328125,117.404541015625,-266.151123046875,3,208.6903076171875,195.961181640625,91.039794921875,0.0,0.0,0.0,0.0,0.0,0.0011111111111111111,0.0022222222222222222,-0.18,1.82,9.58,11.721694624000001
1671151528.075809,0,-72.6444091796875,196.7724609375,113.33251953125,1,15.1668701171875,116.63916015625,-261.772216796875,2,68.327392578125,117.4189453125,-266.141357421875,3,208.6912841796875,195.9736328125,91.03515625,0.0,0.0,0.0,0.0,0.0,0.0011111111111111111,0.0022222222222222222,-0.18,1.82,9.58,11.721694624000001
1671151528.0857759,0,-72.70709228515625,196.87646484375,113.39697265625,1,15.177001953125,116.654296875,-261.752197265625,2,68.3355712890625,117.423583984375,-266.14453125,3,208.68115234375,195.900390625,91.029052734375,0.0,0.0,0.0,0.0,0.0,-0.0,0.0011111111111111111,-0.19,1.81,9.61,11.728281696
1671151528.0957558,0,-72.654541015625,196.779541015625,113.306884765625,1,15.1513671875,116.674072265625,-261.652587890625,2,68.3525390625,117.411376953125,-266.126220703125,3,208.6929931640625,195.96142578125,91.025390625,0.0,0.0,0.0,0.0,0.0,-0.0,0.0011111111111111111,-0.19,1.81,9.61,11.728281696
1671151528.1057973,0,-72.65386962890625,196.748291015625,113.30078125,1,15.1929931640625,116.6259765625,-261.7294921875,2,68.384521484375,117.448486328125,-266.1337890625,3,208.7171630859375,195.9501953125,91.025634765625,0.0,0.0,0.0,0.0,0.0,-0.0,0.0011111111111111111,-0.19,1.81,9.61,11.728281696
1671151528.1158528,0,-72.66058349609375,196.766845703125,113.445068359375,1,15.1962890625,116.62109375,-261.740966796875,2,68.359375,117.39599609375,-266.1435546875,3,208.690185546875,195.931396484375,91.05615234375,0.0,0.0,0.0,0.0,0.0,-0.0,0.0011111111111111111,-0.19,1.81,9.61,11.728281696
1671151528.1258304,0,-72.70489501953125,196.705810546875,113.391845703125,1,15.171142578125,116.61962890625,-261.72412109375,2,68.36572265625,117.408447265625,-266.140869140625,3,208.7364501953125,195.955322265625,91.05322265625,0.0,0.0,0.0,0.0,0.0,-0.0,0.0011111111111111111,-0.19,1.81,9.61,11.728281696
1671151528.135816,0,-72.65692138671875,196.72900390625,113.369140625,1,15.160888671875,116.608154296875,-261.7373046875,2,68.362548828125,117.404296875,-266.130126953125,3,208.7132568359375,195.9375,91.00634765625,0.0,0.0,0.0,0.0,0.0,-0.0,-0.0022222222222222222,-0.18,1.81,9.65,11.711814016
1671151528.1458218,0,-72.708251953125,196.700439453125,113.34521484375,1,15.1802978515625,116.622802734375,-261.75927734375,2,68.368896484375,117.419921875,-266.139892578125,3,208.711669921875,195.95556640625,91.041259765625,0.0,0.0,0.0,0.0,0.0,-0.0,-0.0022222222222222222,-0.18,1.81,9.65,11.711814016
1671151528.1558657,0,-72.76739501953125,196.6982421875,113.33984375,1,15.1749267578125,116.684326171875,-261.780029296875,2,68.3502197265625,117.386474609375,-266.14697265625,3,208.7012939453125,195.967529296875,91.03466796875,0.0,0.0,0.0,0.0,0.0,-0.0,-0.0022222222222222222,-0.18,1.81,9.65,11.711814016
1671151528.1659698,0,-72.69659423828125,196.704833984375,113.363037109375,1,15.17138671875,116.667236328125,-261.765869140625,2,68.338623046875,117.414794921875,-266.149658203125,3,208.677490234375,195.95458984375,91.01806640625,0.0,0.0,0.0,0.0,0.0,-0.0,-0.0022222222222222222,-0.18,1.81,9.65,11.711814016
1671151528.1758256,0,-72.68707275390625,196.666259765625,113.340087890625,1,15.1904296875,116.632080078125,-261.732421875,2,68.3450927734375,117.425048828125,-266.1728515625,3,208.7012939453125,195.97216796875,91.02490234375,0.0,0.0,0.0,0.0,0.0,-0.0,-0.0022222222222222222,-0.18,1.81,9.65,11.711814016
1671151528.1858735,0,-72.70489501953125,196.799072265625,113.35400390625,1,15.186767578125,116.656982421875,-261.735107421875,2,68.3494873046875,117.382568359375,-266.13525390625,3,208.702392578125,195.9306640625,90.99853515625,0.0,0.0,0.0,0.0,0.0,-0.0,-0.0022222222222222222,-0.18,1.81,9.65,11.711814016
1671151528.195817,0,-72.79315185546875,196.675048828125,113.367431640625,1,15.1712646484375,116.643310546875,-261.7685546875,2,68.3433837890625,117.43603515625,-266.17041015625,3,208.7083740234375,195.955810546875,90.998291015625,0.0,0.0,0.0,0.0,0.0022222222222222222,0.0011111111111111111,-0.0,-0.18,1.81,9.58,11.731575232
1671151528.2058425,0,-72.6905517578125,196.7197265625,113.332275390625,1,15.1807861328125,116.654541015625,-261.7275390625,2,68.359619140625,117.41748046875,-266.134765625,3,208.70263671875,195.966064453125,91.07275390625,0.0,0.0,0.0,0.0,0.0022222222222222222,0.0011111111111111111,-0.0,-0.18,1.81,9.58,11.731575232
1671151528.2158222,0,-72.7720947265625,196.725341796875,113.364501953125,1,15.1712646484375,116.6083984375,-261.720947265625,2,68.3438720703125,117.43505859375,-266.165771484375,3,208.689208984375,195.975341796875,91.01318359375,0.0,0.0,0.0,0.0,0.0022222222222222222,0.0011111111111111111,-0.0,-0.18,1.81,9.58,11.731575232
1671151528.2258494,0,-72.7591552734375,196.805419921875,113.37646484375,1,15.1976318359375,116.621337890625,-261.71923828125,2,68.37109375,117.434326171875,-266.14111328125,3,208.6793212890625,195.96826171875,90.98486328125,0.0,0.0,0.0,0.0,0.0,-0.0022222222222222222,-0.0011111111111111111,-0.18,1.81,9.61,11.731575232
1671151528.2357693,0,-72.77655029296875,196.723876953125,113.386962890625,1,15.1942138671875,116.636962890625,-261.732421875,2,68.375244140625,117.438720703125,-266.14501953125,3,208.681640625,195.901611328125,91.009033203125,0.0,0.0,0.0,0.0,0.0,-0.0022222222222222222,-0.0011111111111111111,-0.18,1.81,9.61,11.731575232
1671151528.2457693,0,-72.834716796875,196.744384765625,113.349609375,1,15.1934814453125,116.58447265625,-261.713134765625,2,68.358154296875,117.422119140625,-266.161376953125,3,208.7032470703125,195.965087890625,91.0361328125,0.0,0.0,0.0,0.0,0.0,-0.0022222222222222222,-0.0011111111111111111,-0.18,1.81,9.61,11.731575232
1671151528.2557786,0,-72.79547119140625,196.706787109375,113.294677734375,1,15.183837890625,116.637939453125,-261.7529296875,2,68.358642578125,117.454345703125,-266.180419921875,3,208.7017822265625,195.965087890625,91.00634765625,0.0,0.0,0.0,0.0,0.0,-0.0022222222222222222,-0.0011111111111111111,-0.18,1.81,9.61,11.731575232
1671151528.265791,0,-72.767578125,196.72314453125,113.33642578125,1,15.189208984375,116.59912109375,-261.737060546875,2,68.340576171875,117.420166015625,-266.15380859375,3,208.7108154296875,195.978271484375,91.037109375,0.0,0.0,0.0,0.0,0.0,-0.0022222222222222222,-0.0011111111111111111,-0.18,1.81,9.61,11.731575232
1671151528.2758546,0,-72.6873779296875,196.70361328125,113.378173828125,1,15.1788330078125,116.626953125,-261.7373046875,2,68.35498046875,117.419189453125,-266.1435546875,3,208.7357177734375,195.976318359375,90.998046875,0.0,0.0,0.0,0.0,0.0,-0.0022222222222222222,-0.0011111111111111111,-0.18,1.81,9.61,11.731575232
1671151528.2857757,0,-72.6796875,196.760009765625,113.382080078125,1,15.2005615234375,116.639892578125,-261.74267578125,2,68.344970703125,117.402099609375,-266.124267578125,3,208.7222900390625,195.915283203125,91.013427734375,0.0,0.0,0.0,0.0,-0.0011111111111111111,0.0011111111111111111,-0.0011111111111111111,-0.17,1.81,9.61,11.72498816
1671151528.29577,0,-72.756103515625,196.716064453125,113.338134765625,1,15.1849365234375,116.60546875,-261.72705078125,2,68.3507080078125,117.394287109375,-266.1611328125,3,208.6890869140625,195.98388671875,91.01318359375,0.0,0.0,0.0,0.0,-0.0011111111111111111,0.0011111111111111111,-0.0011111111111111111,-0.17,1.81,9.61,11.72498816
1671151528.3057714,0,-72.72998046875,196.736572265625,113.309326171875,1,15.1802978515625,116.614990234375,-261.739013671875,2,68.3248291015625,117.409912109375,-266.1640625,3,208.67431640625,195.99169921875,91.06787109375,0.0,0.0,0.0,0.0,-0.0011111111111111111,0.0011111111111111111,-0.0011111111111111111,-0.17,1.81,9.61,11.72498816
1671151528.3157477,0,-72.78387451171875,196.859619140625,113.37109375,1,15.1915283203125,116.600341796875,-261.728515625,2,68.3636474609375,117.441650390625,-266.1328125,3,208.666015625,195.955810546875,91.013427734375,0.0,0.0,0.0,0.0,-0.0011111111111111111,0.0011111111111111111,-0.0011111111111111111,-0.17,1.81,9.61,11.72498816
1671151528.3258553,0,-72.78216552734375,196.751708984375,113.36181640625,1,15.197998046875,116.634033203125,-261.72314453125,2,68.36083984375,117.4375,-266.15283203125,3,208.6981201171875,195.953125,91.023193359375,0.0,0.0,0.0,0.0,-0.0011111111111111111,0.0011111111111111111,-0.0011111111111111111,-0.17,1.81,9.61,11.72498816
1671151528.335768,0,-72.7415771484375,196.78564453125,113.3837890625,1,15.1822509765625,116.618896484375,-261.751953125,2,68.38134765625,117.4716796875,-266.158935546875,3,208.6884765625,195.9169921875,91.007568359375,0.0,0.0,0.0,0.0,-0.0011111111111111111,0.0011111111111111111,-0.0011111111111111111,-0.17,1.81,9.61,11.72498816
1671151528.3457804,0,-72.8404541015625,196.72216796875,113.323974609375,1,15.177490234375,116.613525390625,-261.76220703125,2,68.3492431640625,117.451171875,-266.19091796875,3,208.69384765625,195.954345703125,91.032958984375,0.0,0.0,0.0,0.0,-0.0011111111111111111,-0.0011111111111111111,-0.0033333333333333335,-0.2,1.82,9.62,11.728281696
1671151528.355808,0,-72.7701416015625,196.7353515625,113.339599609375,1,15.1927490234375,116.629638671875,-261.731689453125,2,68.3653564453125,117.439453125,-266.140380859375,3,208.71240234375,195.9599609375,91.031494140625,0.0,0.0,0.0,0.0,-0.0011111111111111111,-0.0011111111111111111,-0.0033333333333333335,-0.2,1.82,9.62,11.728281696
1671151528.365861,0,-72.7655029296875,196.7890625,113.363525390625,1,15.18896484375,116.64453125,-261.725830078125,2,68.3541259765625,117.43408203125,-266.142822265625,3,208.6973876953125,195.965576171875,91.025146484375,0.0,0.0,0.0,0.0,-0.0011111111111111111,-0.0011111111111111111,-0.0033333333333333335,-0.2,1.82,9.62,11.728281696
1671151528.375851,0,-72.78399658203125,196.758056640625,113.3818359375,1,15.1649169921875,116.60986328125,-261.7236328125,2,68.373046875,117.4521484375,-266.146240234375,3,208.6768798828125,195.9306640625,91.049072265625,0.0,0.0,0.0,0.0,-0.0011111111111111111,-0.0011111111111111111,-0.0033333333333333335,-0.2,1.82,9.62,11.728281696
1671151528.3857698,0,-72.72186279296875,196.728759765625,113.377197265625,1,15.1990966796875,116.63330078125,-261.74609375,2,68.3604736328125,117.450439453125,-266.165771484375,3,208.69482421875,195.91064453125,91.02734375,0.0,0.0,0.0,0.0,-0.0011111111111111111,-0.0011111111111111111,-0.0033333333333333335,-0.2,1.82,9.62,11.728281696
1671151528.3957684,0,-72.7049560546875,196.73876953125,113.358154296875,1,15.1917724609375,116.63037109375,-261.742431640625,2,68.363037109375,117.406005859375,-266.173095703125,3,208.7069091796875,195.9541015625,91.03173828125,0.0,0.0,0.0,0.0,-0.0022222222222222222,-0.2833333333333333,0.0011111111111111111,-0.18,1.83,9.57,11.70852048
1671151528.4057713,0,-72.69036865234375,196.658203125,113.3466796875,1,15.184814453125,116.624755859375,-261.756591796875,2,68.35693359375,117.412353515625,-266.161865234375,3,208.681640625,195.972412109375,91.0048828125,0.0,0.0,0.0,0.0,-0.0022222222222222222,-0.2833333333333333,0.0011111111111111111,-0.18,1.83,9.57,11.70852048
1671151528.415834,0,-72.7001953125,196.787109375,113.38916015625,1,15.176513671875,116.648193359375,-261.76416015625,2,68.33984375,117.40234375,-266.149169921875,3,208.702392578125,195.94189453125,91.043212890625,0.0,0.0,0.0,0.0,-0.0022222222222222222,-0.2833333333333333,0.0011111111111111111,-0.18,1.83,9.57,11.70852048
1671151528.4258673,0,-72.777099609375,196.76025390625,113.373046875,1,15.1712646484375,116.607666015625,-261.760986328125,2,68.348876953125,117.427001953125,-266.141845703125,3,208.7052001953125,195.9873046875,91.015380859375,0.0,0.0,0.0,0.0,-0.0022222222222222222,-0.2833333333333333,0.0011111111111111111,-0.18,1.83,9.57,11.70852048
1671151528.4357774,0,-72.69744873046875,196.838623046875,113.390380859375,1,15.191162109375,116.617919921875,-261.742431640625,2,68.3819580078125,117.4423828125,-266.133056640625,3,208.69873046875,195.90576171875,91.02880859375,0.0,0.0,0.0,0.0,-0.0011111111111111111,0.0022222222222222222,-0.0,-0.18,1.8,9.6,11.701933408
1671151528.4457767,0,-72.7413330078125,196.737548828125,113.35888671875,1,15.1788330078125,116.61474609375,-261.753662109375,2,68.3660888671875,117.407958984375,-266.130859375,3,208.7066650390625,195.961181640625,91.037109375,0.0,0.0,0.0,0.0,-0.0011111111111111111,0.0022222222222222222,-0.0,-0.18,1.8,9.6,11.701933408
1671151528.4557378,0,-72.7503662109375,196.772216796875,113.3369140625,1,15.164306640625,116.643310546875,-261.7626953125,2,68.353271484375,117.406005859375,-266.1259765625,3,208.716064453125,195.92431640625,91.046875,0.0,0.0,0.0,0.0,-0.0011111111111111111,0.0022222222222222222,-0.0,-0.18,1.8,9.6,11.701933408
1671151528.4657798,0,-72.697998046875,196.720947265625,113.3779296875,1,15.1859130859375,116.60546875,-261.732666015625,2,68.32568359375,117.35107421875,-266.15185546875,3,208.654052734375,195.9091796875,91.021484375,0.0,0.0,0.0,0.0,-0.0011111111111111111,0.0022222222222222222,-0.0,-0.18,1.8,9.6,11.701933408
1671151528.4758208,0,-72.71881103515625,196.812255859375,113.358154296875,1,15.174560546875,116.658447265625,-261.7626953125,2,68.355224609375,117.41064453125,-266.148681640625,3,208.6766357421875,195.94384765625,91.02978515625,0.0,0.0,0.0,0.0,-0.0011111111111111111,0.0022222222222222222,-0.0,-0.18,1.8,9.6,11.701933408
1671151528.4857695,0,-72.6634521484375,196.750244140625,113.3857421875,1,15.1986083984375,116.643798828125,-261.7265625,2,68.3695068359375,117.416015625,-266.1640625,3,208.7333984375,195.9287109375,91.007080078125,0.0,0.0,0.0,0.0,0.0,-0.0,-0.0,-0.18,1.81,9.59,11.715107552000001
1671151528.4957685,0,-72.6473388671875,196.715576171875,113.334716796875,1,15.193115234375,116.627685546875,-261.7353515625,2,68.3526611328125,117.4130859375,-266.14111328125,3,208.6998291015625,195.949951171875,91.042724609375,0.0,0.0,0.0,0.0,0.0,-0.0,-0.0,-0.18,1.81,9.59,11.715107552000001
1671151528.505772,0,-72.62158203125,196.75244140625,113.353271484375,1,15.1829833984375,116.6328125,-261.7353515625,2,68.347412109375,117.39892578125,-266.14306640625,3,208.716552734375,195.95068359375,91.0068359375,0.0,0.0,0.0,0.0,0.0,-0.0,-0.0,-0.18,1.81,9.59,11.715107552000001
1671151528.5157716,0,-72.68731689453125,196.650634765625,113.411865234375,1,15.2235107421875,116.57470703125,-261.794921875,2,68.357666015625,117.4228515625,-266.158935546875,3,208.6995849609375,195.953369140625,91.03759765625,0.0,0.0,0.0,0.0,0.0,-0.0,-0.0,-0.18,1.81,9.59,11.715107552000001
1671151528.5258663,0,-72.7064208984375,196.643310546875,113.37158203125,1,15.1748046875,116.618408203125,-261.75927734375,2,68.3607177734375,117.4130859375,-266.153076171875,3,208.6888427734375,195.953369140625,91.02783203125,0.0,0.0,0.0,0.0,0.0,-0.0,-0.0,-0.18,1.81,9.59,11.715107552000001
1671151528.5357754,0,-72.58856201171875,196.641357421875,113.36181640625,1,15.1856689453125,116.62646484375,-261.781494140625,2,68.341064453125,117.4482421875,-266.164306640625,3,208.70166015625,195.908935546875,91.015625,0.0,0.0,0.0,0.0,-0.0011111111111111111,0.0011111111111111111,0.0022222222222222222,-0.18,1.82,9.59,11.711814016
1671151528.5457728,0,-72.5966796875,196.667236328125,113.324462890625,1,15.2125244140625,116.566650390625,-261.72216796875,2,68.35400390625,117.415283203125,-266.146484375,3,208.731201171875,195.93408203125,91.078125,0.0,0.0,0.0,0.0,-0.0011111111111111111,0.0011111111111111111,0.0022222222222222222,-0.18,1.82,9.59,11.711814016
1671151528.5559163,0,-72.66845703125,196.552001953125,113.399658203125,1,15.1898193359375,116.633056640625,-261.74609375,2,68.35595703125,117.444580078125,-266.183349609375,3,208.70947265625,195.946044921875,91.046875,0.0,0.0,0.0,0.0,-0.0011111111111111111,0.0011111111111111111,0.0022222222222222222,-0.18,1.82,9.59,11.711814016
1671151528.5659919,0,-72.684814453125,196.497802734375,113.510986328125,1,15.1669921875,116.622314453125,-261.761474609375,2,68.3536376953125,117.409912109375,-266.150390625,3,208.7034912109375,195.94384765625,91.036376953125,0.0,0.0,0.0,0.0,-0.0011111111111111111,0.0011111111111111111,0.0022222222222222222,-0.18,1.82,9.59,11.711814016
1671151528.5758655,0,-72.64398193359375,196.52685546875,113.431640625,1,15.15673828125,116.643798828125,-261.768798828125,2,68.3311767578125,117.42138671875,-266.16015625,3,208.689453125,195.9443359375,91.02783203125,0.0,0.0,0.0,0.0,-0.0011111111111111111,0.0011111111111111111,0.0022222222222222222,-0.18,1.82,9.59,11.711814016
1671151528.5858822,0,-72.57965087890625,196.647216796875,113.37109375,1,15.1734619140625,116.61279296875,-261.728271484375,2,68.3592529296875,117.423583984375,-266.149658203125,3,208.6898193359375,195.921630859375,91.002685546875,0.0,0.0,0.0,0.0,-0.0011111111111111111,-0.0,-0.0,-0.18,1.8,9.59,11.711814016
1671151528.5958672,0,-72.659912109375,196.542236328125,113.36328125,1,15.1715087890625,116.59521484375,-261.696533203125,2,68.35302734375,117.44677734375,-266.156005859375,3,208.7005615234375,195.96533203125,91.028564453125,0.0,0.0,0.0,0.0,-0.0011111111111111111,-0.0,-0.0,-0.18,1.8,9.59,11.711814016
1671151528.6058004,0,-72.55426025390625,196.56005859375,113.375732421875,1,15.165771484375,116.653564453125,-261.7626953125,2,68.34228515625,117.406982421875,-266.16259765625,3,208.6712646484375,195.945068359375,91.0390625,0.0,0.0,0.0,0.0,-0.0011111111111111111,-0.0,-0.0,-0.18,1.8,9.59,11.711814016
1671151528.6157672,0,-72.509033203125,196.556396484375,113.3955078125,1,15.1875,116.644775390625,-261.760498046875,2,68.325439453125,117.381103515625,-266.16064453125,3,208.693359375,195.904296875,91.023193359375,0.0,0.0,0.0,0.0,-0.0011111111111111111,-0.0,-0.0,-0.18,1.8,9.59,11.711814016
1671151528.625905,0,-72.60430908203125,196.513916015625,113.40966796875,1,15.18017578125,116.6455078125,-261.735107421875,2,68.34375,117.39794921875,-266.17724609375,3,208.677490234375,195.91748046875,91.014404296875,0.0,0.0,0.0,0.0,-0.0011111111111111111,-0.0,-0.0,-0.18,1.8,9.59,11.711814016
1671151528.6357982,0,-72.54608154296875,196.455810546875,113.443359375,1,15.2177734375,116.670166015625,-261.73779296875,2,68.361572265625,117.40625,-266.143310546875,3,208.6949462890625,195.903076171875,91.004638671875,0.0,0.0,0.0,0.0,0.0011111111111111111,-0.0,0.0011111111111111111,-0.21,1.81,9.59,11.728281696
1671151528.6457934,0,-72.54827880859375,196.50439453125,113.400146484375,1,15.177978515625,116.603515625,-261.709716796875,2,68.3690185546875,117.445068359375,-266.167236328125,3,208.6903076171875,195.92724609375,91.0107421875,0.0,0.0,0.0,0.0,0.0011111111111111111,-0.0,0.0011111111111111111,-0.21,1.81,9.59,11.728281696
1671151528.655848,0,-72.55712890625,196.52783203125,113.366943359375,1,15.1676025390625,116.599609375,-261.7109375,2,68.3603515625,117.435546875,-266.1787109375,3,208.7020263671875,195.91845703125,91.0517578125,0.0,0.0,0.0,0.0,0.0011111111111111111,-0.0,0.0011111111111111111,-0.21,1.81,9.59,11.728281696
1671151528.665831,0,-72.65618896484375,196.53076171875,113.3740234375,1,15.19921875,116.643310546875,-261.740478515625,2,68.3634033203125,117.447509765625,-266.15283203125,3,208.7391357421875,195.97607421875,91.0166015625,0.0,0.0,0.0,0.0,0.0011111111111111111,-0.0,0.0011111111111111111,-0.21,1.81,9.59,11.728281696
1671151528.6758592,0,-72.50189208984375,196.516357421875,113.419921875,1,15.1729736328125,116.649169921875,-261.746826171875,2,68.36279296875,117.453125,-266.174560546875,3,208.7149658203125,195.96484375,91.036865234375,0.0,0.0,0.0,0.0,0.0011111111111111111,-0.0,0.0011111111111111111,-0.21,1.81,9.59,11.728281696
1671151528.6859307,0,-72.49285888671875,196.491455078125,113.404541015625,1,15.1751708984375,116.65087890625,-261.7646484375,2,68.3814697265625,117.435791015625,-266.155517578125,3,208.7259521484375,195.90087890625,91.030029296875,0.0,0.0,0.0,0.0,0.0011111111111111111,-0.0,0.0011111111111111111,-0.21,1.81,9.59,11.728281696
1671151528.6959033,0,-72.50225830078125,196.47021484375,113.37451171875,1,15.1705322265625,116.61767578125,-261.7578125,2,68.3682861328125,117.442138671875,-266.167236328125,3,208.7113037109375,195.984375,91.023681640625,0.0,0.0,0.0,0.0,0.0,-0.0,-0.0022222222222222222,-0.19,1.81,9.6,11.715107552000001
1671151528.7059395,0,-72.568359375,196.505615234375,113.377197265625,1,15.165283203125,116.627685546875,-261.765380859375,2,68.3675537109375,117.41796875,-266.1201171875,3,208.6842041015625,195.955322265625,91.0234375,0.0,0.0,0.0,0.0,0.0,-0.0,-0.0022222222222222222,-0.19,1.81,9.6,11.715107552000001
1671151528.7159061,0,-72.54180908203125,196.517333984375,113.383056640625,1,15.1888427734375,116.627197265625,-261.75537109375,2,68.3905029296875,117.4482421875,-266.15283203125,3,208.7252197265625,195.96240234375,91.026611328125,0.0,0.0,0.0,0.0,0.0,-0.0,-0.0022222222222222222,-0.19,1.81,9.6,11.715107552000001
1671151528.725856,0,-72.5152587890625,196.5107421875,113.40576171875,1,15.16650390625,116.640380859375,-261.753662109375,2,68.3814697265625,117.446533203125,-266.176025390625,3,208.670654296875,195.923095703125,91.01904296875,0.0,0.0,0.0,0.0,0.0,-0.0,-0.0022222222222222222,-0.19,1.81,9.6,11.715107552000001
1671151528.7359273,0,-72.49261474609375,196.450927734375,113.44873046875,1,15.1568603515625,116.603515625,-261.74755859375,2,68.3795166015625,117.41748046875,-266.1796875,3,208.723876953125,195.896728515625,91.045166015625,0.0,0.0,0.0,0.0,0.0,-0.0022222222222222222,0.2833333333333333,-0.19,1.81,9.61,11.718401088
1671151528.7458174,0,-72.5068359375,196.57421875,113.347412109375,1,15.1717529296875,116.625244140625,-261.745361328125,2,68.3797607421875,117.4423828125,-266.15283203125,3,208.7344970703125,195.97509765625,91.0400390625,0.0,0.0,0.0,0.0,0.0,-0.0022222222222222222,0.2833333333333333,-0.19,1.81,9.61,11.718401088
1671151528.7558017,0,-72.55999755859375,196.527587890625,113.37353515625,1,15.179443359375,116.67041015625,-261.77294921875,2,68.3865966796875,117.468994140625,-266.163818359375,3,208.7132568359375,195.935302734375,91.04638671875,0.0,0.0,0.0,0.0,0.0,-0.0022222222222222222,0.2833333333333333,-0.19,1.81,9.61,11.718401088
1671151528.765811,0,-72.60723876953125,196.50830078125,113.397216796875,1,15.19921875,116.6083984375,-261.704833984375,2,68.357666015625,117.4208984375,-266.185791015625,3,208.70654296875,195.8798828125,91.031982421875,0.0,0.0,0.0,0.0,0.0,-0.0022222222222222222,0.2833333333333333,-0.19,1.81,9.61,11.718401088
1671151528.775886,0,-72.547119140625,196.5439453125,113.42236328125,1,15.18603515625,116.639892578125,-261.7333984375,2,68.371826171875,117.439697265625,-266.18896484375,3,208.7100830078125,195.96630859375,91.014404296875,0.0,0.0,0.0,0.0,0.0,-0.0022222222222222222,0.2833333333333333,-0.19,1.81,9.61,11.718401088
1671151528.7857563,0,-72.49615478515625,196.5458984375,113.40185546875,1,15.1993408203125,116.65576171875,-261.707763671875,2,68.3590087890625,117.472900390625,-266.160400390625,3,208.694580078125,195.892822265625,91.000732421875,0.0,0.0,0.0,0.0,-0.0011111111111111111,0.0022222222222222222,0.28444444444444444,-0.19,1.81,9.61,11.701933408
1671151528.7957988,0,-72.55035400390625,196.4326171875,113.369384765625,1,15.20361328125,116.604248046875,-261.7158203125,2,68.354736328125,117.449462890625,-266.182861328125,3,208.7117919921875,195.931884765625,91.034423828125,0.0,0.0,0.0,0.0,-0.0011111111111111111,0.0022222222222222222,0.28444444444444444,-0.19,1.81,9.61,11.701933408
1671151528.805913,0,-72.599365234375,196.44384765625,113.40576171875,1,15.1990966796875,116.675048828125,-261.744140625,2,68.3779296875,117.429443359375,-266.141845703125,3,208.642333984375,195.921142578125,91.04296875,0.0,0.0,0.0,0.0,-0.0011111111111111111,0.0022222222222222222,0.28444444444444444,-0.19,1.81,9.61,11.701933408
1671151528.8158214,0,-72.53314208984375,196.506103515625,113.421875,1,15.196044921875,116.62939453125,-261.753173828125,2,68.3760986328125,117.41845703125,-266.112060546875,3,208.7659912109375,195.968017578125,91.052978515625,0.0,0.0,0.0,0.0,-0.0011111111111111111,0.0022222222222222222,0.28444444444444444,-0.19,1.81,9.61,11.701933408
1671151528.8258638,0,-72.60443115234375,196.51220703125,113.3994140625,1,15.1728515625,116.639404296875,-261.76806640625,2,68.3572998046875,117.44482421875,-266.1572265625,3,208.7547607421875,195.94970703125,91.0458984375,0.0,0.0,0.0,0.0,-0.0011111111111111111,0.0022222222222222222,0.28444444444444444,-0.19,1.81,9.61,11.701933408
1671151528.8358567,0,-72.55419921875,196.5380859375,113.40087890625,1,15.17236328125,116.658447265625,-261.780517578125,2,68.3646240234375,117.41015625,-266.123046875,3,208.7252197265625,195.9052734375,90.996826171875,0.0,0.0,0.0,0.0,0.0011111111111111111,-0.0022222222222222222,-0.0,-0.18,1.81,9.61,11.721694624000001
1671151528.8458648,0,-72.60003662109375,196.4931640625,113.3779296875,1,15.187744140625,116.579833984375,-261.715576171875,2,68.3685302734375,117.42431640625,-266.128662109375,3,208.7091064453125,195.941162109375,90.989501953125,0.0,0.0,0.0,0.0,0.0011111111111111111,-0.0022222222222222222,-0.0,-0.18,1.81,9.61,11.721694624000001
1671151528.8558846,0,-72.5877685546875,196.480712890625,113.3701171875,1,15.1688232421875,116.633056640625,-261.7861328125,2,68.3656005859375,117.46337890625,-266.133056640625,3,208.717041015625,195.975830078125,90.995849609375,0.0,0.0,0.0,0.0,0.0011111111111111111,-0.0022222222222222222,-0.0,-0.18,1.81,9.61,11.721694624000001
1671151528.8658588,0,-72.6202392578125,196.599609375,113.426513671875,1,15.193115234375,116.657470703125,-261.7529296875,2,68.3587646484375,117.40478515625,-266.157470703125,3,208.7283935546875,195.92138671875,91.016357421875,0.0,0.0,0.0,0.0,0.0011111111111111111,-0.0022222222222222222,-0.0,-0.18,1.81,9.61,11.721694624000001
1671151528.8758388,0,-72.5399169921875,196.59912109375,113.3974609375,1,15.1810302734375,116.630859375,-261.77197265625,2,68.3740234375,117.458251953125,-266.17333984375,3,208.7274169921875,195.97216796875,91.02294921875,0.0,0.0,0.0,0.0,0.0011111111111111111,-0.0022222222222222222,-0.0,-0.18,1.81,9.61,11.721694624000001
1671151528.8858728,0,-72.68487548828125,196.523193359375,113.422607421875,1,15.197265625,116.642578125,-261.720947265625,2,68.34716796875,117.435546875,-266.146484375,3,208.7081298828125,195.929443359375,90.99853515625,0.0,0.0,0.0,0.0,-0.0011111111111111111,0.0011111111111111111,0.0011111111111111111,-0.18,1.81,9.6,11.728281696
1671151528.895874,0,-72.66033935546875,196.480224609375,113.403076171875,1,15.1875,116.65673828125,-261.74365234375,2,68.3453369140625,117.421875,-266.166748046875,3,208.761962890625,195.982421875,91.018310546875,0.0,0.0,0.0,0.0,-0.0011111111111111111,0.0011111111111111111,0.0011111111111111111,-0.18,1.81,9.6,11.728281696
1671151528.9058683,0,-72.69573974609375,196.544189453125,113.38330078125,1,15.2078857421875,116.64111328125,-261.718017578125,2,68.393310546875,117.4482421875,-266.146240234375,3,208.7144775390625,195.95361328125,91.00634765625,0.0,0.0,0.0,0.0,-0.0011111111111111111,0.0011111111111111111,0.0011111111111111111,-0.18,1.81,9.6,11.728281696
1671151528.915858,0,-72.5986328125,196.64013671875,113.39453125,1,15.208251953125,116.6337890625,-261.7236328125,2,68.3544921875,117.416259765625,-266.164794921875,3,208.7579345703125,195.945068359375,91.02197265625,0.0,0.0,0.0,0.0,-0.0011111111111111111,0.0011111111111111111,0.0011111111111111111,-0.18,1.81,9.6,11.728281696
1671151528.9258728,0,-72.66156005859375,196.665283203125,113.352783203125,1,15.154052734375,116.625732421875,-261.734619140625,2,68.3656005859375,117.408203125,-266.134765625,3,208.7420654296875,195.965576171875,91.03564453125,0.0,0.0,0.0,0.0,-0.0011111111111111111,0.0011111111111111111,0.0011111111111111111,-0.18,1.81,9.6,11.728281696
1671151528.9358692,0,-72.71356201171875,196.709716796875,113.390869140625,1,15.16015625,116.654052734375,-261.7490234375,2,68.3602294921875,117.4189453125,-266.162109375,3,208.725830078125,195.912109375,91.01708984375,0.0,0.0,0.0,0.0,-0.0022222222222222222,0.0011111111111111111,-0.0,-0.19,1.82,9.63,11.715107552000001
1671151528.9458666,0,-72.67047119140625,196.62109375,113.3798828125,1,15.1646728515625,116.660400390625,-261.658203125,2,68.365234375,117.41015625,-266.14501953125,3,208.734619140625,195.975830078125,91.0263671875,0.0,0.0,0.0,0.0,-0.0022222222222222222,0.0011111111111111111,-0.0,-0.19,1.82,9.63,11.715107552000001
1671151528.9558308,0,-72.6790771484375,196.656982421875,113.380126953125,1,15.1690673828125,116.655517578125,-261.745849609375,2,68.346923828125,117.419189453125,-266.146484375,3,208.7095947265625,195.94677734375,91.026611328125,0.0,0.0,0.0,0.0,-0.0022222222222222222,0.0011111111111111111,-0.0,-0.19,1.82,9.63,11.715107552000001
1671151528.96586,0,-72.70953369140625,196.693603515625,113.380615234375,1,15.1766357421875,116.6064453125,-261.75439453125,2,68.353759765625,117.410400390625,-266.170654296875,3,208.705078125,195.91796875,91.009033203125,0.0,0.0,0.0,0.0,-0.0022222222222222222,0.0011111111111111111,-0.0,-0.19,1.82,9.63,11.715107552000001
1671151528.9758782,0,-72.63134765625,196.6220703125,113.42041015625,1,15.20849609375,116.62890625,-261.7236328125,2,68.3309326171875,117.40771484375,-266.17333984375,3,208.736328125,195.93994140625,91.048828125,0.0,0.0,0.0,0.0,-0.0022222222222222222,0.0011111111111111111,-0.0,-0.19,1.82,9.63,11.715107552000001
1671151528.985824,0,-72.7078857421875,196.645263671875,113.374267578125,1,15.15380859375,116.593994140625,-261.778076171875,2,68.3509521484375,117.43212890625,-266.1787109375,3,208.74560546875,195.92431640625,91.037353515625,0.0,0.0,0.0,0.0,0.0,-0.0,0.0011111111111111111,-0.16,1.81,9.6,11.731575232
1671151528.9958687,0,-72.7091064453125,196.64599609375,113.336669921875,1,15.1822509765625,116.636962890625,-261.77392578125,2,68.3529052734375,117.448486328125,-266.193359375,3,208.7374267578125,195.9833984375,91.021484375,0.0,0.0,0.0,0.0,0.0,-0.0,0.0011111111111111111,-0.16,1.81,9.6,11.731575232
1671151529.0058646,0,-72.7327880859375,196.66748046875,113.349853515625,1,15.1937255859375,116.6572265625,-261.740966796875,2,68.392333984375,117.457763671875,-266.1552734375,3,208.7554931640625,195.9482421875,91.026123046875,0.0,0.0,0.0,0.0,0.0,-0.0,0.0011111111111111111,-0.16,1.81,9.6,11.731575232
1671151529.0158641,0,-72.6561279296875,196.6005859375,113.468994140625,1,15.180908203125,116.619140625,-261.748779296875,2,68.3634033203125,117.414794921875,-266.1611328125,3,208.7322998046875,195.928466796875,90.998291015625,0.0,0.0,0.0,0.0,0.0,-0.0,0.0011111111111111111,-0.16,1.81,9.6,11.731575232
1671151529.025888,0,-72.7081298828125,196.7421875,113.313720703125,1,15.1834716796875,116.619384765625,-261.743408203125,2,68.35107421875,117.4384765625,-266.165283203125,3,208.7166748046875,195.973876953125,91.03271484375,0.0,0.0,0.0,0.0,0.0,-0.0,0.0011111111111111111,-0.16,1.81,9.6,11.731575232
1671151529.0358813,0,-72.62957763671875,196.72412109375,113.384521484375,1,15.1661376953125,116.651611328125,-261.763671875,2,68.3558349609375,117.414794921875,-266.157470703125,3,208.7213134765625,195.950927734375,91.014404296875,0.0,0.0,0.0,0.0,0.0,-0.0,-0.0,-0.19,1.82,9.64,11.718401088
1671151529.0459282,0,-72.7484130859375,196.7197265625,113.33642578125,1,15.17578125,116.615966796875,-261.739013671875,2,68.36767578125,117.431884765625,-266.133544921875,3,208.6954345703125,195.97705078125,91.019287109375,0.0,0.0,0.0,0.0,0.0,-0.0,-0.0,-0.19,1.82,9.64,11.718401088
1671151529.0557892,0,-72.663330078125,196.675048828125,113.36767578125,1,15.192626953125,116.637939453125,-261.729736328125,2,68.3680419921875,117.43798828125,-266.15185546875,3,208.7210693359375,195.958984375,91.034912109375,0.0,0.0,0.0,0.0,0.0,-0.0,-0.0,-0.19,1.82,9.64,11.718401088
1671151529.065834,0,-72.6676025390625,196.727783203125,113.40771484375,1,15.1866455078125,116.60986328125,-261.736083984375,2,68.3560791015625,117.42333984375,-266.1748046875,3,208.7147216796875,195.950927734375,91.03955078125,0.0,0.0,0.0,0.0,0.0,-0.0,-0.0,-0.19,1.82,9.64,11.718401088
1671151529.0758884,0,-72.68121337890625,196.712646484375,113.403076171875,1,15.1793212890625,116.642578125,-261.745849609375,2,68.3426513671875,117.445068359375,-266.16064453125,3,208.726318359375,195.93359375,91.0478515625,0.0,0.0,0.0,0.0,0.0,-0.0,-0.0,-0.19,1.82,9.64,11.718401088
1671151529.0857763,0,-72.57037353515625,196.659912109375,113.405029296875,1,15.192138671875,116.64990234375,-261.778564453125,2,68.367431640625,117.45458984375,-266.12841796875,3,208.697998046875,195.92529296875,91.018310546875,0.0,0.0,0.0,0.0,0.0,-0.0,-0.0,-0.19,1.82,9.64,11.718401088
1671151529.0957665,0,-72.66705322265625,196.680908203125,113.35546875,1,15.190185546875,116.6328125,-261.74365234375,2,68.33251953125,117.424560546875,-266.1455078125,3,208.7103271484375,195.97412109375,91.0400390625,0.0,0.0,11.7,11.7,-0.0011111111111111111,-0.0,0.0022222222222222222,-0.19,1.82,9.57,11.721694624000001
1671151529.1059043,0,-72.6329345703125,196.644775390625,113.36474609375,1,15.160888671875,116.66357421875,-261.79833984375,2,68.35498046875,117.458984375,-266.19580078125,3,208.7366943359375,195.9541015625,91.0244140625,0.0,0.0,11.7,11.7,-0.0011111111111111111,-0.0,0.0022222222222222222,-0.19,1.82,9.57,11.721694624000001
1671151529.1158302,0,-72.58251953125,196.626220703125,113.38427734375,1,15.1751708984375,116.632080078125,-261.704833984375,2,68.3294677734375,117.399658203125,-266.114501953125,3,208.7366943359375,195.948974609375,90.995361328125,0.0,0.0,11.7,11.7,-0.0011111111111111111,-0.0,0.0022222222222222222,-0.19,1.82,9.57,11.721694624000001
1671151529.12589,0,-72.55108642578125,196.620361328125,113.446044921875,1,15.0352783203125,116.61767578125,-261.584228515625,2,68.2056884765625,117.393310546875,-266.025634765625,3,208.7540283203125,196.03271484375,90.943359375,0.0,0.0,11.7,11.7,-0.0011111111111111111,-0.0,0.0022222222222222222,-0.19,1.82,9.57,11.721694624000001
1671151529.1358984,0,-72.35186767578125,196.715087890625,113.70166015625,1,14.8106689453125,116.630615234375,-261.328125,2,68.005859375,117.40673828125,-265.78125,3,208.8050537109375,196.044189453125,90.9296875,0.000287779479718149,0.0015827871384498195,15.5,15.5,0.0022222222222222222,-0.0,-0.0,0.02,1.79,9.54,11.668998048
1671151529.1458645,0,-72.35406494140625,196.7109375,113.980712890625,1,14.697265625,116.593505859375,-260.965087890625,2,67.832763671875,117.40185546875,-265.476318359375,3,208.8466796875,196.15869140625,91.093017578125,0.000287779479718149,0.0015827871384498195,15.5,15.5,0.0022222222222222222,-0.0,-0.0,0.02,1.79,9.54,11.668998048
1671151529.1558192,0,-72.35479736328125,196.7734375,114.375244140625,1,14.629638671875,116.63671875,-260.503173828125,2,67.798583984375,117.431884765625,-265.03125,3,208.813232421875,196.18603515625,91.48974609375,0.000287779479718149,0.0015827871384498195,15.5,15.5,0.0022222222222222222,-0.0,-0.0,0.02,1.79,9.54,11.668998048
1671151529.1658082,0,-72.37689208984375,196.84375,114.969970703125,1,14.7347412109375,116.607177734375,-259.9541015625,2,67.9205322265625,117.44287109375,-264.492919921875,3,208.835693359375,196.18310546875,92.068115234375,0.000287779479718149,0.0015827871384498195,15.5,15.5,0.0022222222222222222,-0.0,-0.0,0.02,1.79,9.54,11.668998048
1671151529.1758163,0,-72.2574462890625,196.8935546875,115.6748046875,1,14.825439453125,116.64697265625,-259.23291015625,2,68.0384521484375,117.480712890625,-263.816650390625,3,208.9287109375,196.128662109375,92.9111328125,0.000287779479718149,0.0015827871384498195,15.5,15.5,0.0022222222222222222,-0.0,-0.0,0.02,1.79,9.54,11.668998048
1671151529.1858006,0,-72.2547607421875,196.933837890625,116.596923828125,1,14.818115234375,116.5908203125,-258.446533203125,2,68.0616455078125,117.533935546875,-263.0732421875,3,208.9990234375,195.946044921875,93.753662109375,0.02105586526604457,0.02441329252942297,23.7,23.7,0.008888888888888889,-0.16666666666666666,0.08555555555555555,1.2,1.88,9.58,11.695346336
1671151529.195839,0,-72.2154541015625,196.810791015625,117.399658203125,1,14.7125244140625,116.580322265625,-257.714111328125,2,68.0352783203125,117.54931640625,-262.352294921875,3,209.065185546875,196.063232421875,94.489013671875,0.02105586526604457,0.02441329252942297,23.7,23.7,0.008888888888888889,-0.16666666666666666,0.08555555555555555,1.2,1.88,9.58,11.695346336
1671151529.2057555,0,-72.01251220703125,196.853515625,118.30029296875,1,14.734130859375,116.583984375,-256.733642578125,2,68.022216796875,117.626708984375,-261.443603515625,3,209.182861328125,196.166259765625,95.2646484375,0.02105586526604457,0.02441329252942297,23.7,23.7,0.008888888888888889,-0.16666666666666666,0.08555555555555555,1.2,1.88,9.58,11.695346336
1671151529.215769,0,-71.79315185546875,196.88916015625,119.30224609375,1,14.859375,116.560791015625,-255.653564453125,2,68.1083984375,117.69189453125,-260.35400390625,3,209.2938232421875,196.26220703125,96.143798828125,0.02105586526604457,0.02441329252942297,23.7,23.7,0.008888888888888889,-0.16666666666666666,0.08555555555555555,1.2,1.88,9.58,11.695346336
1671151529.2257679,0,-71.6722412109375,196.765380859375,120.407958984375,1,14.962890625,116.46875,-254.605712890625,2,68.1832275390625,117.677490234375,-259.302734375,3,209.361083984375,196.23095703125,97.240966796875,0.02105586526604457,0.02441329252942297,23.7,23.7,0.008888888888888889,-0.16666666666666666,0.08555555555555555,1.2,1.88,9.58,11.695346336
1671151529.235908,0,-71.55731201171875,196.609375,121.849365234375,1,15.17333984375,116.30712890625,-253.260986328125,2,68.25927734375,117.63671875,-257.998779296875,3,209.4903564453125,196.124267578125,98.62890625,0.02105586526604457,0.02441329252942297,23.7,23.7,0.008888888888888889,-0.16666666666666666,0.08555555555555555,1.2,1.88,9.58,11.695346336
1671151529.24579,0,-71.4486083984375,196.49951171875,123.296142578125,1,14.9688720703125,116.324951171875,-251.9697265625,2,68.1578369140625,117.66943359375,-256.83447265625,3,209.5369873046875,196.07421875,100.01123046875,0.060289801000952215,0.06307166930489432,41.7,41.7,-0.006666666666666667,-0.08444444444444445,0.035555555555555556,2.53,1.71,9.28,11.678878656
1671151529.2558029,0,-71.28656005859375,196.5166015625,124.810791015625,1,14.9046630859375,116.353271484375,-250.337158203125,2,68.1981201171875,117.585205078125,-255.1845703125,3,209.682861328125,196.177001953125,101.33935546875,0.060289801000952215,0.06307166930489432,41.7,41.7,-0.006666666666666667,-0.08444444444444445,0.035555555555555556,2.53,1.71,9.28,11.678878656
1671151529.265769,0,-71.1033935546875,196.508544921875,126.299072265625,1,15.0048828125,116.26318359375,-248.794921875,2,68.1900634765625,117.499267578125,-253.667236328125,3,209.800048828125,196.22802734375,102.622802734375,0.060289801000952215,0.06307166930489432,41.7,41.7,-0.006666666666666667,-0.08444444444444445,0.035555555555555556,2.53,1.71,9.28,11.678878656
1671151529.2758672,0,-71.1240234375,196.324951171875,128.404052734375,1,15.0302734375,116.20751953125,-246.87158203125,2,68.21240234375,117.51025390625,-251.817138671875,3,210.0164794921875,196.28759765625,104.40283203125,0.060289801000952215,0.06307166930489432,41.7,41.7,-0.006666666666666667,-0.08444444444444445,0.035555555555555556,2.53,1.71,9.28,11.678878656
1671151529.2858152,0,-70.8079833984375,196.487548828125,130.483154296875,1,15.1265869140625,116.229248046875,-244.82275390625,2,68.2459716796875,117.46240234375,-249.728515625,3,210.1934814453125,196.14599609375,106.541259765625,0.12892520691373074,0.13074781028527901,45.4,45.4,-0.01,0.13,0.044444444444444446,-0.48,2.2,10.52,11.659117440000001
1671151529.2957733,0,-70.64501953125,196.483642578125,132.4365234375,1,15.1805419921875,116.035888671875,-242.67138671875,2,68.3782958984375,117.498046875,-247.668701171875,3,210.326904296875,196.14453125,108.6533203125,0.12892520691373074,0.13074781028527901,45.4,45.4,-0.01,0.13,0.044444444444444446,-0.48,2.2,10.52,11.659117440000001
1671151529.30591,0,-70.4031982421875,196.51513671875,134.970458984375,1,15.6737060546875,115.995361328125,-240.22119140625,2,68.57080078125,117.473388671875,-245.185546875,3,210.459228515625,196.268310546875,111.124267578125,0.12892520691373074,0.13074781028527901,45.4,45.4,-0.01,0.13,0.044444444444444446,-0.48,2.2,10.52,11.659117440000001
1671151529.315845,0,-70.0977783203125,196.380615234375,137.436279296875,1,15.6123046875,116.03515625,-237.796142578125,2,68.7840576171875,117.494140625,-242.790283203125,3,210.5743408203125,196.216552734375,113.572998046875,0.12892520691373074,0.13074781028527901,45.4,45.4,-0.01,0.13,0.044444444444444446,-0.48,2.2,10.52,11.659117440000001
1671151529.3258252,0,-70.259765625,196.084716796875,140.52880859375,1,15.848876953125,116.213623046875,-234.87353515625,2,69.02783203125,117.479248046875,-239.8955078125,3,210.9326171875,196.21728515625,116.499755859375,0.12892520691373074,0.13074781028527901,45.4,45.4,-0.01,0.13,0.044444444444444446,-0.48,2.2,10.52,11.659117440000001
1671151529.3358614,0,-69.7100830078125,196.247802734375,143.34326171875,1,16.1492919921875,115.98828125,-231.999755859375,2,69.2802734375,117.41650390625,-237.01806640625,3,211.2476806640625,196.018798828125,119.443603515625,0.25856986252675684,0.2597689436922491,58.2,58.2,-0.0011111111111111111,0.03222222222222222,0.027777777777777776,2.56,2.02,9.18,11.672291584
1671151529.3458705,0,-69.37835693359375,196.2978515625,146.172119140625,1,16.205322265625,115.89501953125,-229.192138671875,2,69.3927001953125,117.3525390625,-234.24755859375,3,211.4849853515625,196.100830078125,122.194580078125,0.25856986252675684,0.2597689436922491,58.2,58.2,-0.0011111111111111111,0.03222222222222222,0.027777777777777776,2.56,2.02,9.18,11.672291584
1671151529.3558362,0,-69.142578125,196.304443359375,149.275634765625,1,16.538818359375,115.864501953125,-225.971435546875,2,69.580322265625,117.354248046875,-230.70654296875,3,211.7515869140625,196.120361328125,125.201416015625,0.25856986252675684,0.2597689436922491,58.2,58.2,-0.0011111111111111111,0.03222222222222222,0.027777777777777776,2.56,2.02,9.18,11.672291584
1671151529.3657904,0,-68.7845458984375,196.26220703125,152.6669921875,1,16.8858642578125,115.798095703125,-222.679443359375,2,69.915771484375,117.33837890625,-227.569091796875,3,212.0806884765625,196.09619140625,128.68310546875,0.25856986252675684,0.2597689436922491,58.2,58.2,-0.0011111111111111111,0.03222222222222222,0.027777777777777776,2.56,2.02,9.18,11.672291584
1671151529.375883,0,-68.533203125,196.273681640625,155.982421875,1,17.1348876953125,115.83984375,-219.4658203125,2,70.258544921875,117.327880859375,-224.34521484375,3,212.332275390625,196.066650390625,132.036376953125,0.25856986252675684,0.2597689436922491,58.2,58.2,-0.0011111111111111111,0.03222222222222222,0.027777777777777776,2.56,2.02,9.18,11.672291584
1671151529.3858817,0,-68.12994384765625,196.2412109375,159.699951171875,1,17.3739013671875,115.844970703125,-215.502197265625,2,70.6031494140625,117.057861328125,-220.480224609375,3,212.7318115234375,196.098876953125,135.75439453125,0.42346750440525627,0.43234070502989913,74.7,74.7,0.0033333333333333335,0.04888888888888889,0.028888888888888888,2.84,1.87,11.66,11.649236832
1671151529.3957937,0,-67.92291259765625,196.281494140625,163.205078125,1,17.8411865234375,115.594970703125,-211.86669921875,2,70.9603271484375,117.06396484375,-216.948486328125,3,212.9482421875,196.228515625,139.3017578125,0.42346750440525627,0.43234070502989913,74.7,74.7,0.0033333333333333335,0.04888888888888889,0.028888888888888888,2.84,1.87,11.66,11.649236832
1671151529.4057689,0,-68.06524658203125,196.10302734375,167.33349609375,1,18.1964111328125,115.654541015625,-207.89990234375,2,71.1138916015625,117.08154296875,-212.900390625,3,213.2158203125,196.09130859375,143.302490234375,0.42346750440525627,0.43234070502989913,74.7,74.7,0.0033333333333333335,0.04888888888888889,0.028888888888888888,2.84,1.87,11.66,11.649236832
1671151529.415767,0,-67.4698486328125,195.884521484375,171.77099609375,1,18.3814697265625,115.625,-203.523193359375,2,71.53857421875,117.060302734375,-208.51416015625,3,213.5999755859375,196.087158203125,147.6953125,0.42346750440525627,0.43234070502989913,74.7,74.7,0.0033333333333333335,0.04888888888888889,0.028888888888888888,2.84,1.87,11.66,11.649236832
1671151529.4258661,0,-66.92523193359375,196.026123046875,175.877197265625,1,18.5181884765625,115.594970703125,-199.384521484375,2,71.7926025390625,116.9609375,-204.405517578125,3,213.986083984375,195.8544921875,151.754638671875,0.42346750440525627,0.43234070502989913,74.7,74.7,0.0033333333333333335,0.04888888888888889,0.028888888888888888,2.84,1.87,11.66,11.649236832
1671151529.4358501,0,-66.5419921875,195.93994140625,180.794677734375,1,18.8382568359375,115.55859375,-194.42822265625,2,72.19921875,116.9541015625,-199.5869140625,3,214.5067138671875,196.15771484375,156.45751953125,0.42346750440525627,0.43234070502989913,74.7,74.7,0.0033333333333333335,0.04888888888888889,0.028888888888888888,2.84,1.87,11.66,11.649236832
1671151529.4458635,0,-66.074462890625,195.970703125,185.286865234375,1,19.23486328125,115.61181640625,-190.0283203125,2,72.5562744140625,116.9609375,-195.11474609375,3,214.6298828125,196.314453125,160.968994140625,0.6473599396259762,0.6499499549434395,81.4,81.4,0.008888888888888889,-0.051111111111111114,0.025555555555555557,1.19,2.84,8.06,11.583366112
1671151529.4558692,0,-65.63623046875,195.85009765625,190.37109375,1,19.658935546875,115.5869140625,-184.82958984375,2,72.9205322265625,116.988525390625,-190.012939453125,3,215.1856689453125,195.991455078125,166.135986328125,0.6473599396259762,0.6499499549434395,81.4,81.4,0.008888888888888889,-0.051111111111111114,0.025555555555555557,1.19,2.84,8.06,11.583366112
1671151529.4658718,0,-65.61785888671875,195.593505859375,195.39599609375,1,19.9368896484375,115.54833984375,-180.0849609375,2,73.2537841796875,116.996337890625,-185.249755859375,3,215.7181396484375,196.00732421875,170.83056640625,0.6473599396259762,0.6499499549434395,81.4,81.4,0.008888888888888889,-0.051111111111111114,0.025555555555555557,1.19,2.84,8.06,11.583366112
1671151529.475832,0,-64.85430908203125,195.759765625,200.736083984375,1,20.2493896484375,115.5771484375,-174.729248046875,2,73.590087890625,116.90625,-179.822265625,3,216.233642578125,195.986328125,176.305419921875,0.6473599396259762,0.6499499549434395,81.4,81.4,0.008888888888888889,-0.051111111111111114,0.025555555555555557,1.19,2.84,8.06,11.583366112
1671151529.4858341,0,-64.20782470703125,195.68017578125,206.513916015625,1,20.681640625,115.501953125,-168.934326171875,2,73.95703125,116.947998046875,-174.156494140625,3,216.6875,195.869140625,181.92529296875,0.90017421255837,0.8959054836092175,82.1,82.1,0.03888888888888889,0.042222222222222223,-0.24888888888888888,1.93,2.47,9.28,11.629475616
1671151529.495768,0,-63.7056884765625,195.58447265625,211.7001953125,1,20.83740234375,115.37939453125,-163.91845703125,2,74.22265625,116.806396484375,-169.098876953125,3,217.1951904296875,195.884765625,186.968994140625,0.90017421255837,0.8959054836092175,82.1,82.1,0.03888888888888889,0.042222222222222223,-0.24888888888888888,1.93,2.47,9.28,11.629475616
1671151529.505773,0,-63.19403076171875,195.54736328125,217.707763671875,1,21.2174072265625,115.445556640625,-158.072265625,2,74.5576171875,116.8896484375,-163.2333984375,3,217.74365234375,195.76806640625,192.788818359375,0.90017421255837,0.8959054836092175,82.1,82.1,0.03888888888888889,0.042222222222222223,-0.24888888888888888,1.93,2.47,9.28,11.629475616
1671151529.5157685,0,-62.78765869140625,195.215087890625,223.807861328125,1,21.5975341796875,115.334228515625,-152.291015625,2,74.94189453125,116.853515625,-157.31640625,3,218.31787109375,195.726806640625,198.675537109375,0.90017421255837,0.8959054836092175,82.1,82.1,0.03888888888888889,0.042222222222222223,-0.24888888888888888,1.93,2.47,9.28,11.629475616
1671151529.5257869,0,-62.0584716796875,195.447998046875,229.177001953125,1,21.8001708984375,115.39892578125,-146.746826171875,2,75.1092529296875,116.779052734375,-152.09228515625,3,218.8006591796875,195.666015625,203.861572265625,0.90017421255837,0.8959054836092175,82.1,82.1,0.03888888888888889,0.042222222222222223,-0.24888888888888888,1.93,2.47,9.28,11.629475616
1671151529.5357788,0,-61.30377197265625,195.5810546875,235.10791015625,1,22.087890625,115.450927734375,-140.81884765625,2,75.432373046875,116.776611328125,-146.13818359375,3,219.3389892578125,195.698486328125,209.515625,0.90017421255837,0.8959054836092175,82.1,82.1,0.03888888888888889,0.042222222222222223,-0.24888888888888888,1.93,2.47,9.28,11.629475616
1671151529.545768,0,-60.634765625,195.549072265625,240.473876953125,1,22.3380126953125,115.322998046875,-135.531494140625,2,75.6658935546875,116.767578125,-140.940185546875,3,219.8736572265625,195.6474609375,214.83154296875,1.2141416249308705,1.202870261975243,82.1,82.1,0.02,0.01888888888888889,0.04666666666666667,2.08,1.52,8.22,11.665704512
1671151529.5557752,0,-60.4271240234375,195.512939453125,246.683349609375,1,22.493896484375,115.51123046875,-129.476806640625,2,75.852294921875,116.79345703125,-134.86474609375,3,220.2327880859375,195.633056640625,220.636474609375,1.2141416249308705,1.202870261975243,82.1,82.1,0.02,0.01888888888888889,0.04666666666666667,2.08,1.52,8.22,11.665704512
1671151529.5657928,0,-60.0965576171875,195.689697265625,252.83349609375,1,22.8505859375,115.370849609375,-123.66357421875,2,76.1778564453125,116.650146484375,-129.0185546875,3,220.989990234375,195.584228515625,226.3935546875,1.2141416249308705,1.202870261975243,82.1,82.1,0.02,0.01888888888888889,0.04666666666666667,2.08,1.52,8.22,11.665704512
1671151529.575833,0,-59.541259765625,195.960693359375,258.281494140625,1,22.9539794921875,115.327392578125,-118.10888671875,2,76.2535400390625,116.71484375,-123.625,3,221.4124755859375,195.747314453125,231.71630859375,1.2141416249308705,1.202870261975243,82.1,82.1,0.02,0.01888888888888889,0.04666666666666667,2.08,1.52,8.22,11.665704512
1671151529.585779,0,-59.12579345703125,195.69482421875,264.41455078125,1,23.1260986328125,115.330810546875,-112.0751953125,2,76.3675537109375,116.7421875,-117.673583984375,3,221.5767822265625,195.7646484375,237.590087890625,1.5244638305602745,1.5174611965537996,82.1,82.1,0.03333333333333333,0.0033333333333333335,0.08666666666666667,0.29,2.14,14.44,11.54384368
1671151529.5958502,0,-58.48480224609375,195.915283203125,269.723876953125,1,23.4503173828125,115.333984375,-106.594970703125,2,76.447265625,117.02978515625,-112.20556640625,3,221.98876953125,196.003173828125,242.952880859375,1.5244638305602745,1.5174611965537996,82.1,82.1,0.03333333333333333,0.0033333333333333335,0.08666666666666667,0.29,2.14,14.44,11.54384368
1671151529.6058614,0,-57.97515869140625,195.6611328125,275.98876953125,1,23.7412109375,115.483642578125,-100.482666015625,2,76.262451171875,117.552490234375,-106.10009765625,3,222.374755859375,196.22119140625,248.74267578125,1.5244638305602745,1.5174611965537996,82.1,82.1,0.03333333333333333,0.0033333333333333335,0.08666666666666667,0.29,2.14,14.44,11.54384368
1671151529.6159728,0,-57.33160400390625,195.66455078125,281.903076171875,1,24.04443359375,115.19677734375,-94.466064453125,2,76.2774658203125,117.510986328125,-99.914306640625,3,222.92138671875,196.2265625,254.55517578125,1.5244638305602745,1.5174611965537996,82.1,82.1,0.03333333333333333,0.0033333333333333335,0.08666666666666667,0.29,2.14,14.44,11.54384368
1671151529.6258187,0,-56.901611328125,195.760498046875,287.462646484375,1,24.3824462890625,115.168212890625,-88.64892578125,2,76.521728515625,117.416015625,-94.38671875,3,223.2215576171875,196.2333984375,259.790283203125,1.5244638305602745,1.5174611965537996,82.1,82.1,0.03333333333333333,0.0033333333333333335,0.08666666666666667,0.29,2.14,14.44,11.54384368
1671151529.6358628,0,-56.10650634765625,195.776611328125,293.509033203125,1,24.559814453125,114.9501953125,-82.787109375,2,76.7467041015625,117.3662109375,-88.51953125,3,223.9283447265625,195.957275390625,265.67333984375,1.5244638305602745,1.5174611965537996,82.1,82.1,0.03333333333333333,0.0033333333333333335,0.08666666666666667,0.29,2.14,14.44,11.54384368
1671151529.6458616,0,-55.5474853515625,195.347412109375,299.0712890625,1,24.84912109375,114.9423828125,-77.135986328125,2,77.162353515625,117.411376953125,-83.1435546875,3,224.600830078125,196.148681640625,270.92041015625,1.8855311511133122,1.8714779198537426,82.1,82.1,-0.021111111111111112,-0.027777777777777776,0.08222222222222222,0.89,0.47,8.35,11.678878656
1671151529.6558387,0,-55.04742431640625,195.322998046875,305.255126953125,1,24.97412109375,114.89794921875,-71.06494140625,2,77.2230224609375,117.3759765625,-77.167236328125,3,225.1826171875,196.024169921875,276.85546875,1.8855311511133122,1.8714779198537426,82.1,82.1,-0.021111111111111112,-0.027777777777777776,0.08222222222222222,0.89,0.47,8.35,11.678878656
1671151529.6658306,0,-54.3182373046875,195.41552734375,310.817626953125,1,25.2496337890625,114.836669921875,-65.56201171875,2,77.4678955078125,117.41943359375,-71.815185546875,3,225.6767578125,196.10302734375,282.006103515625,1.8855311511133122,1.8714779198537426,82.1,82.1,-0.021111111111111112,-0.027777777777777776,0.08222222222222222,0.89,0.47,8.35,11.678878656
1671151529.6758802,0,-53.9835205078125,195.15087890625,317.128662109375,1,25.632080078125,114.8525390625,-59.486572265625,2,77.8155517578125,117.30224609375,-65.6142578125,3,226.3194580078125,196.05419921875,287.986572265625,1.8855311511133122,1.8714779198537426,82.1,82.1,-0.021111111111111112,-0.027777777777777776,0.08222222222222222,0.89,0.47,8.35,11.678878656
1671151529.68593,0,-53.07550048828125,195.22998046875,323.097900390625,1,25.8350830078125,114.62744140625,-53.515380859375,2,78.0294189453125,117.262939453125,-59.809326171875,3,226.927734375,196.0576171875,293.786376953125,2.1913448115604655,2.121894030455152,82.1,82.1,0.25666666666666665,-0.01,0.10666666666666667,-2.18,1.74,9.4,11.682172192000001
1671151529.6957965,0,-52.64044189453125,195.21240234375,328.533203125,1,26.04150390625,114.6123046875,-48.116943359375,2,78.2745361328125,117.240234375,-54.405517578125,3,227.474365234375,196.257568359375,298.92041015625,2.1913448115604655,2.121894030455152,82.1,82.1,0.25666666666666665,-0.01,0.10666666666666667,-2.18,1.74,9.4,11.682172192000001
1671151529.7058406,0,-52.17926025390625,194.84521484375,334.67724609375,1,26.3204345703125,114.508056640625,-42.171630859375,2,78.416259765625,117.09912109375,-48.568603515625,3,228.41943359375,196.17919921875,304.709228515625,2.1913448115604655,2.121894030455152,82.1,82.1,0.25666666666666665,-0.01,0.10666666666666667,-2.18,1.74,9.4,11.682172192000001
1671151529.7160087,0,-51.46844482421875,194.965576171875,340.6611328125,1,26.692138671875,114.463623046875,-36.10546875,2,78.8858642578125,117.08837890625,-42.630126953125,3,229.23193359375,196.28662109375,310.432373046875,2.1913448115604655,2.121894030455152,82.1,82.1,0.25666666666666665,-0.01,0.10666666666666667,-2.18,1.74,9.4,11.682172192000001
1671151529.7258625,0,-51.17669677734375,194.76611328125,346.218505859375,1,26.9378662109375,114.438720703125,-30.85107421875,2,79.0831298828125,116.94287109375,-37.282470703125,3,229.481689453125,196.002197265625,315.6923828125,2.1913448115604655,2.121894030455152,82.1,82.1,0.25666666666666665,-0.01,0.10666666666666667,-2.18,1.74,9.4,11.682172192000001
1671151529.7358634,0,-50.3792724609375,194.741943359375,352.2373046875,1,27.378173828125,114.32470703125,-24.66845703125,2,79.5269775390625,117.030517578125,-31.308349609375,3,230.1456298828125,196.08984375,321.4453125,2.1913448115604655,2.121894030455152,82.1,82.1,0.25666666666666665,-0.01,0.10666666666666667,-2.18,1.74,9.4,11.682172192000001
1671151529.7458708,0,-49.6697998046875,194.49853515625,357.96240234375,1,27.5849609375,114.464111328125,-19.361572265625,2,79.7225341796875,117.05908203125,-25.91796875,3,230.6728515625,196.03662109375,326.81640625,2.553083617566178,2.4967268027880407,82.1,82.1,0.024444444444444446,-0.025555555555555557,0.11444444444444445,-0.22,2.01,7.4,11.59324672
1671151529.7558837,0,-49.14483642578125,194.924560546875,363.966796875,1,27.9774169921875,114.479248046875,-13.330322265625,2,80.0931396484375,117.098876953125,-19.994873046875,3,231.354736328125,196.078125,332.52001953125,2.553083617566178,2.4967268027880407,82.1,82.1,0.024444444444444446,-0.025555555555555557,0.11444444444444445,-0.22,2.01,7.4,11.59324672
1671151529.7658622,0,-47.97991943359375,195.019775390625,369.293701171875,1,28.3753662109375,114.204345703125,-7.725341796875,2,80.376708984375,116.962158203125,-14.651611328125,3,231.968994140625,195.99267578125,337.70361328125,2.553083617566178,2.4967268027880407,82.1,82.1,0.024444444444444446,-0.025555555555555557,0.11444444444444445,-0.22,2.01,7.4,11.59324672
1671151529.7758732,0,-47.08447265625,195.0478515625,375.2060546875,1,28.638671875,114.271240234375,-2.06103515625,2,80.6695556640625,116.97412109375,-8.7431640625,3,233.082763671875,195.9228515625,343.4990234375,2.553083617566178,2.4967268027880407,82.1,82.1,0.024444444444444446,-0.025555555555555557,0.11444444444444445,-0.22,2.01,7.4,11.59324672
1671151529.7858734,0,-46.40704345703125,195.31396484375,381.340576171875,1,28.8643798828125,114.338134765625,3.9697265625,2,81.0291748046875,116.896240234375,-2.843994140625,3,233.5557861328125,196.365966796875,349.195556640625,2.867386772665017,2.7752014126619695,83.6,83.6,0.05333333333333334,-0.03,0.09666666666666666,0.1,2.17,9.04,11.668998048
1671151529.795864,0,-45.98101806640625,195.081298828125,386.746826171875,1,29.08984375,114.18310546875,9.18505859375,2,81.424560546875,116.688720703125,2.55859375,3,234.25830078125,196.292724609375,354.40380859375,2.867386772665017,2.7752014126619695,83.6,83.6,0.05333333333333334,-0.03,0.09666666666666666,0.1,2.17,9.04,11.668998048
1671151529.8057687,0,-45.7161865234375,195.117431640625,392.9794921875,1,29.66650390625,114.199951171875,15.230224609375,2,82.1705322265625,116.530029296875,8.419189453125,3,235.0675048828125,196.57080078125,360.14501953125,2.867386772665017,2.7752014126619695,83.6,83.6,0.05333333333333334,-0.03,0.09666666666666666,0.1,2.17,9.04,11.668998048
1671151529.8157802,0,-44.7462158203125,194.857421875,399.186767578125,1,29.8798828125,114.15869140625,21.399169921875,2,82.6123046875,116.316650390625,14.4501953125,3,235.41162109375,196.32421875,365.97998046875,2.867386772665017,2.7752014126619695,83.6,83.6,0.05333333333333334,-0.03,0.09666666666666666,0.1,2.17,9.04,11.668998048
1671151529.8258362,0,-44.62548828125,194.98779296875,404.603515625,1,30.233154296875,114.3037109375,26.83154296875,2,82.8856201171875,116.57861328125,19.79052734375,3,236.10400390625,196.259521484375,371.211181640625,2.867386772665017,2.7752014126619695,83.6,83.6,0.05333333333333334,-0.03,0.09666666666666666,0.1,2.17,9.04,11.668998048
1671151529.8357978,0,-43.48944091796875,194.8603515625,410.649169921875,1,30.699462890625,114.47509765625,32.901123046875,2,83.43505859375,116.69384765625,25.8212890625,3,236.8702392578125,196.14794921875,377.053955078125,3.2043765434149694,3.07209390923786,84.4,84.4,-0.23777777777777778,-0.016666666666666666,0.09555555555555556,-2.72,1.67,9.97,11.668998048
1671151529.8457913,0,-42.82965087890625,195.170166015625,416.22802734375,1,31.0694580078125,114.261474609375,38.37255859375,2,83.765625,116.48583984375,31.305419921875,3,237.49853515625,196.240478515625,382.393310546875,3.2043765434149694,3.07209390923786,84.4,84.4,-0.23777777777777778,-0.016666666666666666,0.09555555555555556,-2.72,1.67,9.97,11.668998048
1671151529.8557887,0,-41.76416015625,195.34619140625,422.309326171875,1,31.6790771484375,114.19677734375,44.64404296875,2,84.096435546875,116.5205078125,37.320556640625,3,238.2952880859375,196.302734375,388.2666015625,3.2043765434149694,3.07209390923786,84.4,84.4,-0.23777777777777778,-0.016666666666666666,0.09555555555555556,-2.72,1.67,9.97,11.668998048
1671151529.8658319,0,-40.5001220703125,195.508544921875,427.96728515625,1,32.033935546875,114.64501953125,49.66845703125,2,84.5616455078125,116.445068359375,42.71484375,3,239.1082763671875,196.112548828125,393.5625,3.2043765434149694,3.07209390923786,84.4,84.4,-0.23777777777777778,-0.016666666666666666,0.09555555555555556,-2.72,1.67,9.97,11.668998048
1671151529.8758667,0,-40.26080322265625,195.71240234375,434.15380859375,1,32.4945068359375,114.9892578125,55.71630859375,2,85.0306396484375,116.601318359375,48.912841796875,3,239.8060302734375,196.442626953125,399.5078125,3.2043765434149694,3.07209390923786,84.4,84.4,-0.23777777777777778,-0.016666666666666666,0.09555555555555556,-2.72,1.67,9.97,11.668998048
1671151529.8858552,0,-39.7081298828125,196.0615234375,440.309814453125,1,32.857421875,115.051025390625,61.691650390625,2,85.363525390625,116.482177734375,54.965087890625,3,240.6190185546875,196.22021484375,405.419189453125,3.533452378472673,3.380737401235575,84.4,84.4,0.01888888888888889,0.02,0.1,0.47,2.79,8.7,11.682172192000001
1671151529.8958628,0,-39.2322998046875,196.003662109375,445.845947265625,1,33.286865234375,115.118896484375,67.17578125,2,85.8297119140625,116.494384765625,60.433349609375,3,241.4422607421875,196.13134765625,410.86083984375,3.533452378472673,3.380737401235575,84.4,84.4,0.01888888888888889,0.02,0.1,0.47,2.79,8.7,11.682172192000001
1671151529.9058642,0,-38.3233642578125,195.970458984375,452.064453125,1,33.8997802734375,114.83642578125,73.779296875,2,86.2158203125,116.55029296875,66.67919921875,3,242.3790283203125,196.373046875,416.798828125,3.533452378472673,3.380737401235575,84.4,84.4,0.01888888888888889,0.02,0.1,0.47,2.79,8.7,11.682172192000001
1671151529.9159977,0,-37.56475830078125,196.072509765625,458.2802734375,1,34.1632080078125,114.984130859375,79.638916015625,2,87.0447998046875,116.070556640625,72.701171875,3,243.049072265625,196.4072265625,422.6962890625,3.533452378472673,3.380737401235575,84.4,84.4,0.01888888888888889,0.02,0.1,0.47,2.79,8.7,11.682172192000001
1671151529.925817,0,-37.12060546875,195.805419921875,464.015380859375,1,34.5394287109375,115.03662109375,85.103271484375,2,87.316162109375,116.17529296875,78.2421875,3,243.8447265625,196.283935546875,428.0205078125,3.533452378472673,3.380737401235575,84.4,84.4,0.01888888888888889,0.02,0.1,0.47,2.79,8.7,11.682172192000001
1671151529.935878,0,-36.119384765625,195.744384765625,470.379638671875,1,34.9036865234375,114.998779296875,91.163818359375,2,87.95458984375,115.999755859375,84.301513671875,3,244.6064453125,196.194580078125,433.902587890625,3.8853107556747295,3.7090458243473634,84.4,84.4,-0.043333333333333335,-0.04888888888888889,0.09666666666666666,2.57,1.43,5.59,11.678878656
1671151529.9458947,0,-34.92779541015625,195.917724609375,475.953857421875,1,35.2220458984375,115.020751953125,96.789306640625,2,87.8385009765625,116.2802734375,89.884765625,3,245.322265625,196.427490234375,439.2861328125,3.8853107556747295,3.7090458243473634,84.4,84.4,-0.043333333333333335,-0.04888888888888889,0.09666666666666666,2.57,1.43,5.59,11.678878656
1671151529.955868,0,-33.77740478515625,195.662353515625,482.400390625,1,35.6656494140625,114.836181640625,102.94140625,2,88.0262451171875,116.29638671875,95.80322265625,3,246.1680908203125,196.4453125,445.139892578125,3.8853107556747295,3.7090458243473634,84.4,84.4,-0.043333333333333335,-0.04888888888888889,0.09666666666666666,2.57,1.43,5.59,11.678878656
1671151529.965971,0,-32.6798095703125,195.775390625,488.63427734375,1,36.173583984375,114.737548828125,109.26171875,2,88.447998046875,116.232177734375,102.01171875,3,247.165771484375,196.4072265625,451.101318359375,3.8853107556747295,3.7090458243473634,84.4,84.4,-0.043333333333333335,-0.04888888888888889,0.09666666666666666,2.57,1.43,5.59,11.678878656
1671151529.9758637,0,-31.75238037109375,195.66845703125,494.091552734375,1,36.6304931640625,114.659423828125,114.8076171875,2,88.9766845703125,116.09228515625,107.547607421875,3,247.8665771484375,196.458251953125,456.4853515625,3.8853107556747295,3.7090458243473634,84.4,84.4,-0.043333333333333335,-0.04888888888888889,0.09666666666666666,2.57,1.43,5.59,11.678878656
1671151529.9858732,0,-30.98834228515625,195.681884765625,500.46142578125,1,37.1943359375,114.75537109375,120.87158203125,2,89.408447265625,116.1142578125,113.618896484375,3,248.7135009765625,196.568603515625,462.32763671875,4.220621812792992,4.049488948853933,85.1,85.1,0.034444444444444444,-0.0011111111111111111,0.11777777777777777,1.02,2.23,9.1,11.672291584
1671151529.9958649,0,-29.8348388671875,195.64404296875,505.865478515625,1,37.6185302734375,114.688232421875,126.42138671875,2,89.888671875,115.979248046875,119.267822265625,3,249.5186767578125,196.597900390625,467.652587890625,4.220621812792992,4.049488948853933,85.1,85.1,0.034444444444444444,-0.0011111111111111111,0.11777777777777777,1.02,2.23,9.1,11.672291584
1671151530.005862,0,-29.40283203125,195.58837890625,512.15283203125,1,38.065185546875,114.69384765625,132.590087890625,2,90.32861328125,116.05810546875,125.19140625,3,250.3453369140625,196.70361328125,473.55615234375,4.220621812792992,4.049488948853933,85.1,85.1,0.034444444444444444,-0.0011111111111111111,0.11777777777777777,1.02,2.23,9.1,11.672291584
1671151530.0159523,0,-28.22149658203125,195.6083984375,518.531494140625,1,38.258056640625,114.715576171875,138.807373046875,2,90.6134033203125,116.14453125,131.335693359375,3,251.02587890625,197.149658203125,479.362548828125,4.220621812792992,4.049488948853933,85.1,85.1,0.034444444444444444,-0.0011111111111111111,0.11777777777777777,1.02,2.23,9.1,11.672291584
1671151530.0258725,0,-27.76318359375,196.31884765625,523.95849609375,1,38.3406982421875,114.56103515625,144.337158203125,2,90.5533447265625,116.254638671875,136.5908203125,3,251.5633544921875,197.335205078125,484.48876953125,4.220621812792992,4.049488948853933,85.1,85.1,0.034444444444444444,-0.0011111111111111111,0.11777777777777777,1.02,2.23,9.1,11.672291584
1671151530.0358627,0,-26.774169921875,196.042724609375,530.43798828125,1,38.9500732421875,114.53369140625,150.5712890625,2,91.1724853515625,116.100830078125,142.94970703125,3,252.4964599609375,197.33544921875,490.455078125,4.220621812792992,4.049488948853933,85.1,85.1,0.034444444444444444,-0.0011111111111111111,0.11777777777777777,1.02,2.23,9.1,11.672291584
1671151530.045869,0,-25.81097412109375,195.96044921875,535.97314453125,1,39.5247802734375,114.31201171875,156.328369140625,2,91.6446533203125,115.935546875,148.487060546875,3,253.3641357421875,197.081787109375,495.858642578125,4.220621812792992,4.049488948853933,85.1,85.1,0.034444444444444444,-0.0011111111111111111,0.11777777777777777,1.02,2.23,9.1,11.672291584
1671151530.0558636,0,-24.71124267578125,196.018798828125,542.277587890625,1,40.1663818359375,114.597900390625,162.441162109375,2,92.402099609375,116.009521484375,154.66455078125,3,254.70458984375,196.520751953125,502.01953125,4.611618199236718,4.436504385828225,88.9,88.9,-0.017777777777777778,-0.025555555555555557,0.1111111111111111,0.46,2.8,9.28,11.665704512
1671151530.0660217,0,-24.312744140625,196.069091796875,548.74267578125,1,40.85693359375,114.58740234375,168.702880859375,2,93.1004638671875,116.022216796875,160.939697265625,3,255.9093017578125,196.992431640625,507.92236328125,4.611618199236718,4.436504385828225,88.9,88.9,-0.017777777777777778,-0.025555555555555557,0.1111111111111111,0.46,2.8,9.28,11.665704512
1671151530.0758195,0,-22.83233642578125,195.970458984375,554.494140625,1,41.24853515625,114.50927734375,174.505615234375,2,94.04443359375,115.496337890625,166.685546875,3,256.52783203125,196.7734375,513.521728515625,4.611618199236718,4.436504385828225,88.9,88.9,-0.017777777777777778,-0.025555555555555557,0.1111111111111111,0.46,2.8,9.28,11.665704512
1671151530.0857944,0,-21.363525390625,196.3330078125,560.93115234375,1,41.747314453125,114.588623046875,180.797607421875,2,93.93994140625,115.94091796875,172.94921875,3,257.188232421875,196.69140625,519.54150390625,4.921412809153305,4.6649533294778145,89.6,89.6,-0.008888888888888889,-0.006666666666666667,0.1111111111111111,1.72,1.6,8.14,11.7743912
1671151530.0957668,0,-20.39862060546875,196.66455078125,566.690185546875,1,42.1416015625,114.511474609375,186.52783203125,2,94.501953125,115.831298828125,178.641357421875,3,258.39453125,196.745849609375,525.142578125,4.921412809153305,4.6649533294778145,89.6,89.6,-0.008888888888888889,-0.006666666666666667,0.1111111111111111,1.72,1.6,8.14,11.7743912
1671151530.105769,0,-19.3304443359375,196.665771484375,573.205810546875,1,42.83349609375,114.69189453125,193.041015625,2,95.0802001953125,115.93603515625,185.064697265625,3,259.4918212890625,196.716552734375,531.37744140625,4.921412809153305,4.6649533294778145,89.6,89.6,-0.008888888888888889,-0.006666666666666667,0.1111111111111111,1.72,1.6,8.14,11.7743912
1671151530.1157944,0,-18.1527099609375,196.013916015625,580.013671875,1,43.56103515625,114.5361328125,199.653564453125,2,95.7420654296875,115.9248046875,191.563720703125,3,260.564697265625,196.68701171875,537.677734375,4.921412809153305,4.6649533294778145,89.6,89.6,-0.008888888888888889,-0.006666666666666667,0.1111111111111111,1.72,1.6,8.14,11.7743912
1671151530.125855,0,-17.35760498046875,196.2001953125,585.9892578125,1,44.0863037109375,114.583251953125,205.63623046875,2,96.26171875,116.01611328125,197.48828125,3,261.3956298828125,196.59228515625,543.44677734375,4.921412809153305,4.6649533294778145,89.6,89.6,-0.008888888888888889,-0.006666666666666667,0.1111111111111111,1.72,1.6,8.14,11.7743912
1671151530.1358016,0,-16.1407470703125,196.8583984375,592.705322265625,1,44.7587890625,114.780517578125,212.257080078125,2,96.9681396484375,116.098876953125,204.05712890625,3,262.4683837890625,196.634033203125,549.821044921875,5.262575382359171,4.987745979228339,85.3,94.7,-0.0022222222222222222,-0.005555555555555556,0.1411111111111111,-0.84,1.35,9.3,11.655823904
1671151530.1457927,0,-14.8375244140625,196.48095703125,598.811279296875,1,45.20068359375,114.871337890625,218.075927734375,2,97.454833984375,116.096435546875,209.845458984375,3,263.3974609375,196.537109375,555.576904296875,5.262575382359171,4.987745979228339,85.3,94.7,-0.0022222222222222222,-0.005555555555555556,0.1411111111111111,-0.84,1.35,9.3,11.655823904
1671151530.1558466,0,-13.7646484375,196.70849609375,605.47705078125,1,45.8778076171875,114.8095703125,224.81201171875,2,98.03857421875,116.129150390625,216.501953125,3,264.4388427734375,196.849853515625,561.73974609375,5.262575382359171,4.987745979228339,85.3,94.7,-0.0022222222222222222,-0.005555555555555556,0.1411111111111111,-0.84,1.35,9.3,11.655823904
1671151530.1658819,0,-12.7015380859375,196.649169921875,612.14599609375,1,46.46728515625,114.8330078125,231.2138671875,2,98.6766357421875,116.26708984375,222.717041015625,3,265.6785888671875,196.5859375,568.20068359375,5.262575382359171,4.987745979228339,85.3,94.7,-0.0022222222222222222,-0.005555555555555556,0.1411111111111111,-0.84,1.35,9.3,11.655823904
1671151530.1758687,0,-11.76220703125,196.708984375,617.951416015625,1,47.176025390625,115.141845703125,237.250244140625,2,99.44775390625,116.47705078125,228.685791015625,3,266.3154296875,196.680419921875,573.934814453125,5.262575382359171,4.987745979228339,85.3,94.7,-0.0022222222222222222,-0.005555555555555556,0.1411111111111111,-0.84,1.35,9.3,11.655823904
1671151530.1858897,0,-10.573974609375,196.15283203125,624.758544921875,1,48.272705078125,114.805908203125,243.814453125,2,100.3624267578125,116.073974609375,235.344970703125,3,267.3916015625,196.492919921875,580.5791015625,5.262575382359171,4.987745979228339,85.3,94.7,-0.0022222222222222222,-0.005555555555555556,0.1411111111111111,-0.84,1.35,9.3,11.655823904
1671151530.1958652,0,-9.85009765625,196.01318359375,630.7529296875,1,49.1685791015625,114.711669921875,249.897216796875,2,101.2698974609375,116.147705078125,241.45703125,3,268.4410400390625,196.54833984375,586.471923828125,5.617455444098268,5.3182607116846325,78.5,100.0,0.25222222222222224,0.03333333333333333,0.13666666666666666,2.42,1.61,12.27,11.678878656
1671151530.2058654,0,-9.047119140625,196.1396484375,637.462890625,1,50.22998046875,114.632568359375,256.451904296875,2,102.4205322265625,115.88623046875,248.03173828125,3,269.523681640625,196.240478515625,593.15771484375,5.617455444098268,5.3182607116846325,78.5,100.0,0.25222222222222224,0.03333333333333333,0.13666666666666666,2.42,1.61,12.27,11.678878656
1671151530.2158198,0,-7.484130859375,196.265869140625,643.2958984375,1,51.1719970703125,114.6796875,262.375732421875,2,103.4078369140625,115.8974609375,253.86474609375,3,270.5765380859375,196.267578125,599.05908203125,5.617455444098268,5.3182607116846325,78.5,100.0,0.25222222222222224,0.03333333333333333,0.13666666666666666,2.42,1.61,12.27,11.678878656
1671151530.2258346,0,-6.128662109375,196.217041015625,649.7802734375,1,52.627685546875,114.60302734375,268.9140625,2,104.877685546875,115.7451171875,260.5361328125,3,271.4105224609375,196.326416015625,605.909912109375,5.617455444098268,5.3182607116846325,78.5,100.0,0.25222222222222224,0.03333333333333333,0.13666666666666666,2.42,1.61,12.27,11.678878656
1671151530.2358139,0,-5.8277587890625,195.792724609375,656.285888671875,1,54.1563720703125,114.50244140625,275.303466796875,2,106.4224853515625,115.7041015625,267.02001953125,3,272.4913330078125,196.0205078125,612.741943359375,5.975117374141308,5.67932803223767,77.8,100.0,0.02666666666666667,0.18666666666666668,0.028888888888888888,2.62,2.26,8.5,11.675585120000001
1671151530.2457933,0,-5.2587890625,195.76904296875,661.816650390625,1,55.5408935546875,114.647705078125,280.925537109375,2,107.8968505859375,115.74853515625,272.871337890625,3,273.115966796875,196.05615234375,619.005615234375,5.975117374141308,5.67932803223767,77.8,100.0,0.02666666666666667,0.18666666666666668,0.028888888888888888,2.62,2.26,8.5,11.675585120000001
1671151530.2558093,0,-4.14013671875,196.373291015625,667.760498046875,1,57.5296630859375,114.361572265625,287.3271484375,2,109.7000732421875,115.62158203125,279.296875,3,274.203369140625,196.133056640625,625.88134765625,5.975117374141308,5.67932803223767,77.8,100.0,0.02666666666666667,0.18666666666666668,0.028888888888888888,2.62,2.26,8.5,11.675585120000001
1671151530.265803,0,-3.2232666015625,196.119384765625,673.380615234375,1,59.231689453125,114.485595703125,292.920166015625,2,111.460693359375,115.682373046875,285.027099609375,3,275.218017578125,196.11474609375,632.028564453125,5.975117374141308,5.67932803223767,77.8,100.0,0.02666666666666667,0.18666666666666668,0.028888888888888888,2.62,2.26,8.5,11.675585120000001
1671151530.2758315,0,-2.7117919921875,196.0458984375,679.504638671875,1,61.02685546875,114.31494140625,299.31396484375,2,113.2972412109375,115.669677734375,291.560302734375,3,275.9620361328125,195.72998046875,639.05029296875,5.975117374141308,5.67932803223767,77.8,100.0,0.02666666666666667,0.18666666666666668,0.028888888888888888,2.62,2.26,8.5,11.675585120000001
1671151530.2859175,0,-2.0572509765625,196.136474609375,685.76416015625,1,62.8109130859375,113.80419921875,306.123046875,2,115.2449951171875,115.700927734375,298.052001953125,3,276.84912109375,195.68310546875,646.089111328125,6.306591371529996,6.062074740262808,77.8,100.0,0.02,0.05555555555555555,-0.21222222222222223,-0.23,1.98,10.45,11.668998048
1671151530.29583,0,-0.8165283203125,196.092041015625,691.289306640625,1,64.7159423828125,113.548095703125,312.017333984375,2,117.013427734375,115.63916015625,303.943115234375,3,277.6474609375,195.896240234375,652.30517578125,6.306591371529996,6.062074740262808,77.8,100.0,0.02,0.05555555555555555,-0.21222222222222223,-0.23,1.98,10.45,11.668998048
1671151530.3059177,0,0.198486328125,195.935546875,697.228759765625,1,66.4635009765625,113.55810546875,318.240478515625,2,118.9261474609375,115.700439453125,310.290283203125,3,278.46240234375,195.795166015625,659.160400390625,6.306591371529996,6.062074740262808,77.8,100.0,0.02,0.05555555555555555,-0.21222222222222223,-0.23,1.98,10.45,11.668998048
1671151530.3157947,0,0.9066162109375,196.0615234375,703.267578125,1,68.2547607421875,113.596923828125,324.5478515625,2,120.5599365234375,115.770263671875,316.633544921875,3,278.9793701171875,195.96630859375,665.9873046875,6.306591371529996,6.062074740262808,77.8,100.0,0.02,0.05555555555555555,-0.21222222222222223,-0.23,1.98,10.45,11.668998048
1671151530.3258479,0,1.5799560546875,195.8837890625,708.807373046875,1,69.9224853515625,113.432373046875,330.177001953125,2,122.3243408203125,115.69482421875,322.4150390625,3,279.8896484375,195.597900390625,672.34521484375,6.306591371529996,6.062074740262808,77.8,100.0,0.02,0.05555555555555555,-0.21222222222222223,-0.23,1.98,10.45,11.668998048
1671151530.335802,0,1.7408447265625,195.5087890625,714.928955078125,1,71.853759765625,113.597412109375,336.355712890625,2,124.2955322265625,115.75244140625,328.910400390625,3,280.7283935546875,195.626953125,679.35205078125,6.306591371529996,6.062074740262808,77.8,100.0,0.02,0.05555555555555555,-0.21222222222222223,-0.23,1.98,10.45,11.668998048
1671151530.345785,0,2.0482177734375,195.29833984375,720.44384765625,1,73.489013671875,113.486572265625,341.992431640625,2,126.2799072265625,115.53369140625,334.701904296875,3,281.25390625,195.573974609375,685.677978515625,6.678306532832605,6.495806379444678,76.3,100.0,0.006666666666666667,0.03333333333333333,-0.31666666666666665,0.57,0.77,11.81,11.652530368
1671151530.355782,0,2.989501953125,195.156982421875,726.38427734375,1,75.4449462890625,113.49365234375,348.591552734375,2,127.8270263671875,115.778076171875,341.302001953125,3,282.334716796875,195.434814453125,692.824951171875,6.678306532832605,6.495806379444678,76.3,100.0,0.006666666666666667,0.03333333333333333,-0.31666666666666665,0.57,0.77,11.81,11.652530368
1671151530.3657358,0,3.1634521484375,195.481689453125,732.593994140625,1,77.3297119140625,113.73974609375,354.663818359375,2,129.763916015625,115.810302734375,347.767822265625,3,282.777099609375,195.561767578125,699.8984375,6.678306532832605,6.495806379444678,76.3,100.0,0.006666666666666667,0.03333333333333333,-0.31666666666666665,0.57,0.77,11.81,11.652530368
1671151530.3758354,0,3.9671630859375,195.332763671875,737.904541015625,1,78.923095703125,113.741455078125,360.34765625,2,131.265625,115.913818359375,353.567626953125,3,283.5150146484375,195.187255859375,706.11328125,6.678306532832605,6.495806379444678,76.3,100.0,0.006666666666666667,0.03333333333333333,-0.31666666666666665,0.57,0.77,11.81,11.652530368
1671151530.385806,0,4.5440673828125,195.310791015625,744.058837890625,1,80.7027587890625,113.74365234375,366.595703125,2,133.0401611328125,116.077392578125,359.930419921875,3,284.24755859375,195.249755859375,713.080810546875,6.678306532832605,6.495806379444678,76.3,100.0,0.006666666666666667,0.03333333333333333,-0.31666666666666665,0.57,0.77,11.81,11.652530368
1671151530.3958073,0,4.9688720703125,194.973388671875,749.387939453125,1,82.3145751953125,113.75341796875,372.178955078125,2,134.7703857421875,116.09375,365.7802734375,3,284.856201171875,195.197509765625,719.313720703125,6.941672720021331,6.824306655542945,53.4,98.9,0.006666666666666667,0.06888888888888889,-0.3322222222222222,-1.09,0.61,11.18,11.6920528
1671151530.4057703,0,5.7247314453125,195.059814453125,755.517578125,1,84.021728515625,113.98681640625,378.458984375,2,136.5257568359375,116.182861328125,372.1982421875,3,285.2183837890625,194.989013671875,726.5546875,6.941672720021331,6.824306655542945,53.4,98.9,0.006666666666666667,0.06888888888888889,-0.3322222222222222,-1.09,0.61,11.18,11.6920528
1671151530.4157553,0,5.551025390625,194.900390625,761.4970703125,1,86.1373291015625,113.801513671875,384.611083984375,2,138.6253662109375,116.160400390625,378.4921875,3,285.952880859375,195.04443359375,733.602294921875,6.941672720021331,6.824306655542945,53.4,98.9,0.006666666666666667,0.06888888888888889,-0.3322222222222222,-1.09,0.61,11.18,11.6920528
1671151530.4258425,0,5.5472412109375,194.41357421875,766.6630859375,1,88.2110595703125,114.088623046875,389.978515625,2,140.7081298828125,116.39306640625,384.19384765625,3,286.3458251953125,194.876953125,740.158935546875,6.941672720021331,6.824306655542945,53.4,98.9,0.006666666666666667,0.06888888888888889,-0.3322222222222222,-1.09,0.61,11.18,11.6920528
1671151530.4359128,0,5.37451171875,194.379638671875,771.90673828125,1,90.6722412109375,114.1689453125,395.64306640625,2,143.780029296875,115.907470703125,390.3046875,3,286.815673828125,194.644287109375,747.102294921875,7.257222919532281,7.230123685192155,52.3,98.5,-0.17666666666666667,-0.0044444444444444444,-0.35777777777777775,-0.49,0.24,10.38,11.734868768
1671151530.4458632,0,5.6544189453125,194.35205078125,776.19482421875,1,93.340087890625,114.4072265625,400.470458984375,2,146.80615234375,115.747314453125,395.693359375,3,287.473876953125,194.4345703125,753.443115234375,7.257222919532281,7.230123685192155,52.3,98.5,-0.17666666666666667,-0.0044444444444444444,-0.35777777777777775,-0.49,0.24,10.38,11.734868768
1671151530.4558692,0,6.112060546875,194.4462890625,780.689697265625,1,96.431884765625,114.628173828125,405.58349609375,2,149.84912109375,115.685302734375,401.3720703125,3,287.7991943359375,194.34912109375,760.371337890625,7.257222919532281,7.230123685192155,52.3,98.5,-0.17666666666666667,-0.0044444444444444444,-0.35777777777777775,-0.49,0.24,10.38,11.734868768
1671151530.465983,0,6.2149658203125,194.333251953125,785.307861328125,1,99.3280029296875,114.752685546875,410.621337890625,2,152.9404296875,115.394775390625,407.3037109375,3,287.956787109375,194.135498046875,767.3701171875,7.257222919532281,7.230123685192155,52.3,98.5,-0.17666666666666667,-0.0044444444444444444,-0.35777777777777775,-0.49,0.24,10.38,11.734868768
1671151530.4758656,0,6.1708984375,194.72900390625,789.379638671875,1,101.8272705078125,114.89013671875,415.3203125,2,155.388427734375,115.556640625,412.36328125,3,287.811767578125,194.346435546875,773.335205078125,7.257222919532281,7.230123685192155,52.3,98.5,-0.17666666666666667,-0.0044444444444444444,-0.35777777777777775,-0.49,0.24,10.38,11.734868768
1671151530.4858682,0,5.627197265625,194.5068359375,793.703369140625,1,104.5933837890625,114.875244140625,420.31103515625,2,158.1708984375,115.685791015625,417.65234375,3,287.8824462890625,194.062744140625,780.235107421875,7.507159397667493,7.604476825058848,52.3,98.5,0.2811111111111111,-0.07666666666666666,-0.7666666666666667,2.37,1.35,9.55,11.695346336
1671151530.495863,0,5.3016357421875,194.4384765625,797.792724609375,1,107.1156005859375,115.01806640625,424.9775390625,2,160.639892578125,115.932373046875,422.7158203125,3,287.614013671875,194.321533203125,786.132568359375,7.507159397667493,7.604476825058848,52.3,98.5,0.2811111111111111,-0.07666666666666666,-0.7666666666666667,2.37,1.35,9.55,11.695346336
1671151530.5058184,0,5.2080078125,194.464111328125,802.124755859375,1,109.8572998046875,115.009521484375,430.15478515625,2,163.343505859375,115.86328125,428.3154296875,3,287.4400634765625,194.291015625,792.921630859375,7.507159397667493,7.604476825058848,52.3,98.5,0.2811111111111111,-0.07666666666666666,-0.7666666666666667,2.37,1.35,9.55,11.695346336
1671151530.5157907,0,5.328857421875,194.504150390625,806.86474609375,1,112.629150390625,114.955810546875,435.459228515625,2,166.09228515625,115.859130859375,434.08740234375,3,287.3258056640625,194.20947265625,799.69580078125,7.507159397667493,7.604476825058848,52.3,98.5,0.2811111111111111,-0.07666666666666666,-0.7666666666666667,2.37,1.35,9.55,11.695346336
1671151530.5258367,0,4.7928466796875,194.395751953125,810.790771484375,1,115.0794677734375,115.122314453125,440.355224609375,2,168.530517578125,116.0419921875,439.33056640625,3,287.2442626953125,194.460205078125,805.35791015625,7.507159397667493,7.604476825058848,52.3,98.5,0.2811111111111111,-0.07666666666666666,-0.7666666666666667,2.37,1.35,9.55,11.695346336
1671151530.5358617,0,4.81298828125,194.547119140625,814.922119140625,1,117.3692626953125,115.423828125,445.54345703125,2,171.183837890625,115.951171875,444.8994140625,3,286.7191162109375,194.600830078125,811.970703125,7.737382981442013,8.029479153355934,52.3,98.5,0.07,-0.04,-0.7788888888888889,-1.16,0.5,9.29,11.682172192000001
1671151530.5458188,0,4.6204833984375,194.5625,818.630615234375,1,119.4951171875,115.670166015625,450.223876953125,2,173.71484375,115.96630859375,449.98779296875,3,286.285400390625,194.81591796875,817.742919921875,7.737382981442013,8.029479153355934,52.3,98.5,0.07,-0.04,-0.7788888888888889,-1.16,0.5,9.29,11.682172192000001
1671151530.555885,0,4.2838134765625,194.484375,822.840576171875,1,122.0523681640625,115.59765625,455.422607421875,2,176.274169921875,116.1064453125,455.422607421875,3,285.917236328125,194.822021484375,824.3125,7.737382981442013,8.029479153355934,52.3,98.5,0.07,-0.04,-0.7788888888888889,-1.16,0.5,9.29,11.682172192000001
1671151530.5657957,0,3.824951171875,194.23095703125,827.02197265625,1,124.567626953125,115.65087890625,460.617919921875,2,178.9522705078125,116.2119140625,461.074462890625,3,285.5147705078125,194.688232421875,830.760009765625,7.737382981442013,8.029479153355934,52.3,98.5,0.07,-0.04,-0.7788888888888889,-1.16,0.5,9.29,11.682172192000001
1671151530.5758557,0,3.39501953125,194.471923828125,830.85498046875,1,126.84423828125,115.765380859375,465.398193359375,2,181.29248046875,116.138916015625,466.2998046875,3,285.4989013671875,194.54248046875,836.823486328125,7.737382981442013,8.029479153355934,52.3,98.5,0.07,-0.04,-0.7788888888888889,-1.16,0.5,9.29,11.682172192000001
1671151530.5858276,0,2.741943359375,194.106201171875,835.287353515625,1,129.464111328125,115.791259765625,470.663818359375,2,184.0162353515625,116.197021484375,471.99560546875,3,284.9200439453125,194.75732421875,843.408935546875,7.9469823691700645,8.372895999152924,52.3,98.5,0.0077777777777777776,0.044444444444444446,-0.8111111111111111,0.94,1.48,7.62,11.698639872000001
1671151530.5958035,0,2.1461181640625,194.098388671875,838.857666015625,1,131.9002685546875,115.855224609375,475.482177734375,2,186.3282470703125,116.177490234375,477.3876953125,3,283.96484375,194.95458984375,849.52734375,7.9469823691700645,8.372895999152924,52.3,98.5,0.0077777777777777776,0.044444444444444446,-0.8111111111111111,0.94,1.48,7.62,11.698639872000001
1671151530.6058526,0,1.755859375,193.95556640625,843.204833984375,1,134.5360107421875,115.896728515625,480.77490234375,2,188.9039306640625,116.27490234375,483.04638671875,3,283.4854736328125,194.7353515625,856.205078125,7.9469823691700645,8.372895999152924,52.3,98.5,0.0077777777777777776,0.044444444444444446,-0.8111111111111111,0.94,1.48,7.62,11.698639872000001
1671151530.6159277,0,0.90966796875,193.9267578125,847.215087890625,1,137.4283447265625,115.575439453125,486.057861328125,2,191.3812255859375,116.156494140625,488.99365234375,3,283.3739013671875,194.31689453125,862.762451171875,7.9469823691700645,8.372895999152924,52.3,98.5,0.0077777777777777776,0.044444444444444446,-0.8111111111111111,0.94,1.48,7.62,11.698639872000001
1671151530.6258647,0,0.400390625,193.921142578125,850.856201171875,1,140.1087646484375,115.351806640625,490.719482421875,2,193.7071533203125,116.33544921875,494.130859375,3,282.86865234375,194.0068359375,868.74560546875,7.9469823691700645,8.372895999152924,52.3,98.5,0.0077777777777777776,0.044444444444444446,-0.8111111111111111,0.94,1.48,7.62,11.698639872000001
1671151530.6358619,0,-0.3372802734375,193.87158203125,854.888916015625,1,142.6556396484375,115.316650390625,496.025146484375,2,195.9677734375,116.3017578125,500.03857421875,3,282.06005859375,194.20263671875,875.264892578125,7.9469823691700645,8.372895999152924,52.3,98.5,0.0077777777777777776,0.044444444444444446,-0.8111111111111111,0.94,1.48,7.62,11.698639872000001
1671151530.645862,0,-0.7965087890625,193.814697265625,858.67919921875,1,144.9525146484375,115.04443359375,500.49462890625,2,198.174072265625,116.230224609375,505.232666015625,3,281.63720703125,194.228515625,881.1829833984375,8.156293977418398,8.730222186469627,52.3,98.5,0.042222222222222223,-0.23777777777777778,-0.8844444444444445,0.12,1.54,10.02,11.573485504
1671151530.6558626,0,-1.399658203125,193.770263671875,862.78955078125,1,147.1937255859375,115.307861328125,506.261962890625,2,200.405029296875,116.384521484375,511.04833984375,3,280.1912841796875,194.198974609375,887.9449462890625,8.156293977418398,8.730222186469627,52.3,98.5,0.042222222222222223,-0.23777777777777778,-0.8844444444444445,0.12,1.54,10.02,11.573485504
1671151530.6661081,0,-2.5101318359375,193.63232421875,867.037841796875,1,149.2188720703125,115.48193359375,511.830810546875,2,202.455078125,116.4521484375,517.000244140625,3,279.0372314453125,194.236572265625,894.5736083984375,8.156293977418398,8.730222186469627,52.3,98.5,0.042222222222222223,-0.23777777777777778,-0.8844444444444445,0.12,1.54,10.02,11.573485504
1671151530.6758215,0,-3.162109375,193.39111328125,871.056396484375,1,151.24853515625,115.37451171875,516.723388671875,2,204.4332275390625,116.369873046875,522.36083984375,3,278.167724609375,194.273193359375,900.32666015625,8.156293977418398,8.730222186469627,52.3,98.5,0.042222222222222223,-0.23777777777777778,-0.8844444444444445,0.12,1.54,10.02,11.573485504
1671151530.685861,0,-3.6956787109375,193.504150390625,875.350830078125,1,153.3140869140625,115.4580078125,522.16064453125,2,206.4404296875,116.4599609375,528.224609375,3,277.1146240234375,194.43798828125,906.73828125,8.363639092555324,9.114599644879833,59.0,100.0,0.01888888888888889,0.015555555555555555,-0.58,-3.66,0.24,14.37,11.6920528
1671151530.6958404,0,-3.99169921875,193.725830078125,878.9599609375,1,155.076171875,115.43310546875,527.09423828125,2,208.2308349609375,116.42041015625,533.5478515625,3,275.8779296875,194.6396484375,912.5850830078125,8.363639092555324,9.114599644879833,59.0,100.0,0.01888888888888889,0.015555555555555555,-0.58,-3.66,0.24,14.37,11.6920528
1671151530.7058573,0,-5.132568359375,193.579833984375,883.1243896484375,1,157.098388671875,115.60302734375,532.527099609375,2,210.1259765625,116.482666015625,539.515380859375,3,274.4573974609375,194.83447265625,918.833984375,8.363639092555324,9.114599644879833,59.0,100.0,0.01888888888888889,0.015555555555555555,-0.58,-3.66,0.24,14.37,11.6920528
1671151530.7157922,0,-6.0848388671875,193.393310546875,887.3575439453125,1,159.0789794921875,115.56884765625,538.23974609375,2,212.0321044921875,116.5341796875,545.542236328125,3,273.2640380859375,194.99755859375,925.4906005859375,8.363639092555324,9.114599644879833,59.0,100.0,0.01888888888888889,0.015555555555555555,-0.58,-3.66,0.24,14.37,11.6920528
1671151530.725845,0,-7.25634765625,193.30908203125,891.3355712890625,1,160.6566162109375,115.54443359375,543.2841796875,2,213.483642578125,116.50732421875,551.05859375,3,272.1590576171875,194.921875,931.3309326171875,8.363639092555324,9.114599644879833,59.0,100.0,0.01888888888888889,0.015555555555555555,-0.58,-3.66,0.24,14.37,11.6920528
1671151530.7358143,0,-8.0732421875,193.369384765625,895.9178466796875,1,162.4210205078125,115.476806640625,549.07080078125,2,215.18798828125,116.51953125,557.26171875,3,270.614013671875,194.577880859375,938.078369140625,8.574149781969151,9.47312491336203,59.8,100.0,0.05444444444444444,-0.0022222222222222222,-0.8188888888888889,-0.55,1.84,8.36,11.672291584
1671151530.7457347,0,-8.9820556640625,193.62646484375,899.7744140625,1,163.732177734375,115.277587890625,554.282470703125,2,216.48681640625,116.305908203125,562.86962890625,3,269.307861328125,194.6181640625,944.1622314453125,8.574149781969151,9.47312491336203,59.8,100.0,0.05444444444444444,-0.0022222222222222222,-0.8188888888888889,-0.55,1.84,8.36,11.672291584
1671151530.7557878,0,-9.5791015625,193.65673828125,904.65576171875,1,165.2977294921875,115.3984375,560.173583984375,2,217.9364013671875,116.463623046875,569.103271484375,3,268.1688232421875,194.625,950.62451171875,8.574149781969151,9.47312491336203,59.8,100.0,0.05444444444444444,-0.0022222222222222222,-0.8188888888888889,-0.55,1.84,8.36,11.672291584
1671151530.765766,0,-10.46533203125,193.585205078125,909.297607421875,1,166.766357421875,115.22900390625,565.958984375,2,219.3935546875,116.2734375,575.330322265625,3,266.6341552734375,194.63134765625,957.4437255859375,8.574149781969151,9.47312491336203,59.8,100.0,0.05444444444444444,-0.0022222222222222222,-0.8188888888888889,-0.55,1.84,8.36,11.672291584
1671151530.7758405,0,-11.01025390625,193.581787109375,913.5018310546875,1,168.0001220703125,115.154296875,571.3486328125,2,220.658935546875,116.2705078125,580.9736328125,3,265.5089111328125,195.05078125,963.0240478515625,8.574149781969151,9.47312491336203,59.8,100.0,0.05444444444444444,-0.0022222222222222222,-0.8188888888888889,-0.55,1.84,8.36,11.672291584
1671151530.7858996,0,-12.5179443359375,193.260009765625,918.191650390625,1,169.4228515625,114.8369140625,576.827880859375,2,221.919677734375,116.155029296875,587.247314453125,3,264.123779296875,194.6787109375,969.883544921875,8.574149781969151,9.47312491336203,59.8,100.0,0.05444444444444444,-0.0022222222222222222,-0.8188888888888889,-0.55,1.84,8.36,11.672291584
1671151530.7958045,0,-13.72979736328125,193.38134765625,922.595458984375,1,170.7745361328125,115.120849609375,583.0830078125,2,223.049560546875,116.45849609375,593.41064453125,3,262.509521484375,194.635009765625,976.477294921875,8.798617776149307,9.881340105342222,76.6,100.0,0.06555555555555556,-0.04111111111111111,-0.73,0.4,1.84,8.3,11.672291584
1671151530.8057766,0,-14.543701171875,193.239013671875,926.7049560546875,1,171.804931640625,115.151123046875,588.491455078125,2,223.8809814453125,116.209228515625,599.29345703125,3,261.3677978515625,194.62109375,982.5535888671875,8.798617776149307,9.881340105342222,76.6,100.0,0.06555555555555556,-0.04111111111111111,-0.73,0.4,1.84,8.3,11.672291584
1671151530.8157547,0,-15.62530517578125,193.265869140625,931.5050048828125,1,172.8233642578125,114.999755859375,594.538330078125,2,225.1807861328125,116.132080078125,605.63427734375,3,259.7373046875,194.052734375,989.279052734375,8.798617776149307,9.881340105342222,76.6,100.0,0.06555555555555556,-0.04111111111111111,-0.73,0.4,1.84,8.3,11.672291584
1671151530.8257968,0,-17.08270263671875,193.470458984375,935.6143798828125,1,173.5614013671875,114.99609375,600.0224609375,2,225.7122802734375,115.940185546875,611.593505859375,3,258.24755859375,194.047119140625,995.2359619140625,8.798617776149307,9.881340105342222,76.6,100.0,0.06555555555555556,-0.04111111111111111,-0.73,0.4,1.84,8.3,11.672291584
1671151530.8357816,0,-18.5650634765625,193.42724609375,940.29345703125,1,174.1864013671875,114.972412109375,606.150634765625,2,226.2237548828125,115.871826171875,618.012451171875,3,256.8753662109375,194.345703125,1001.591796875,8.798617776149307,9.881340105342222,76.6,100.0,0.06555555555555556,-0.04111111111111111,-0.73,0.4,1.84,8.3,11.672291584
1671151530.8458447,0,-19.58062744140625,193.343994140625,944.9154052734375,1,174.507568359375,115.00732421875,611.664306640625,2,226.516357421875,115.913818359375,623.751220703125,3,255.6552734375,194.36767578125,1007.503173828125,9.05306279946677,10.271760932826512,80.0,100.0,-0.03333333333333333,0.03,-0.7333333333333333,-2.03,2.21,5.91,11.622888544
1671151530.855865,0,-20.7698974609375,193.23779296875,950.181884765625,1,174.533203125,114.9013671875,617.92724609375,2,226.557373046875,115.877197265625,630.181884765625,3,254.2432861328125,194.414306640625,1014.1226806640625,9.05306279946677,10.271760932826512,80.0,100.0,-0.03333333333333333,0.03,-0.7333333333333333,-2.03,2.21,5.91,11.622888544
1671151530.8657935,0,-22.98846435546875,193.8330078125,955.216064453125,1,174.4442138671875,115.015625,624.41748046875,2,225.779296875,116.319580078125,636.182861328125,3,252.01416015625,194.69677734375,1020.855224609375,9.05306279946677,10.271760932826512,80.0,100.0,-0.03333333333333333,0.03,-0.7333333333333333,-2.03,2.21,5.91,11.622888544
1671151530.8759098,0,-24.4505615234375,193.983642578125,960.0001220703125,1,174.2664794921875,115.022216796875,630.25146484375,2,225.01904296875,116.22412109375,641.980224609375,3,250.6126708984375,194.935546875,1026.788330078125,9.05306279946677,10.271760932826512,80.0,100.0,-0.03333333333333333,0.03,-0.7333333333333333,-2.03,2.21,5.91,11.622888544
1671151530.8858056,0,-26.81353759765625,193.740234375,965.6309814453125,1,173.6971435546875,115.0234375,636.689453125,2,224.81396484375,116.756103515625,648.28271484375,3,248.8101806640625,194.73828125,1033.9873046875,9.05306279946677,10.271760932826512,80.0,100.0,-0.03333333333333333,0.03,-0.7333333333333333,-2.03,2.21,5.91,11.622888544
1671151530.8958955,0,-28.7987060546875,193.85205078125,970.7572021484375,1,173.23388671875,114.974853515625,642.359619140625,2,224.311767578125,116.6767578125,654.2392578125,3,247.664306640625,194.03564453125,1040.4403076171875,9.317628067820989,10.633403812338985,83.4,96.6,0.05555555555555555,-0.12666666666666668,-0.4777777777777778,1.4,0.76,12.46,11.645943296
1671151530.9058444,0,-30.43316650390625,194.15771484375,976.64111328125,1,172.778076171875,114.9697265625,649.016845703125,2,223.47607421875,116.217529296875,661.225341796875,3,245.9561767578125,194.125732421875,1047.5172119140625,9.317628067820989,10.633403812338985,83.4,96.6,0.05555555555555555,-0.12666666666666668,-0.4777777777777778,1.4,0.76,12.46,11.645943296
1671151530.9157894,0,-32.67596435546875,194.486328125,982.40625,1,172.2152099609375,115.221923828125,655.39453125,2,222.8936767578125,116.486083984375,667.429443359375,3,244.3701171875,193.607177734375,1054.4884033203125,9.317628067820989,10.633403812338985,83.4,96.6,0.05555555555555555,-0.12666666666666668,-0.4777777777777778,1.4,0.76,12.46,11.645943296
1671151530.925852,0,-34.13433837890625,195.167724609375,987.466064453125,1,171.55322265625,114.99560546875,661.444580078125,2,222.0482177734375,116.608154296875,673.1455078125,3,242.935302734375,193.811279296875,1060.3795166015625,9.317628067820989,10.633403812338985,83.4,96.6,0.05555555555555555,-0.12666666666666668,-0.4777777777777778,1.4,0.76,12.46,11.645943296
1671151530.9359186,0,-35.7978515625,194.766845703125,993.76953125,1,170.6282958984375,115.0263671875,667.953125,2,221.3961181640625,116.59814453125,680.28515625,3,240.7576904296875,194.13671875,1066.88916015625,9.317628067820989,10.633403812338985,83.4,96.6,0.05555555555555555,-0.12666666666666668,-0.4777777777777778,1.4,0.76,12.46,11.645943296
1671151530.9459436,0,-37.01116943359375,194.727783203125,999.183349609375,1,169.9195556640625,115.00830078125,673.853515625,2,220.5999755859375,116.59423828125,686.25244140625,3,238.956787109375,194.28125,1072.5972900390625,9.637207180047993,11.027997442279187,89.0,91.0,-0.024444444444444446,0.042222222222222223,-0.31777777777777777,-0.8,1.14,7.91,11.668998048
1671151530.95594,0,-38.639404296875,195.059326171875,1005.3201904296875,1,168.876220703125,114.984619140625,680.443359375,2,219.5782470703125,116.498779296875,693.0849609375,3,237.0511474609375,194.471435546875,1079.2080078125,9.637207180047993,11.027997442279187,89.0,91.0,-0.024444444444444446,0.042222222222222223,-0.31777777777777777,-0.8,1.14,7.91,11.668998048
1671151530.9659266,0,-40.01995849609375,195.6201171875,1011.5194091796875,1,167.7874755859375,115.01025390625,687.145263671875,2,218.3494873046875,116.302734375,699.92236328125,3,235.6785888671875,194.428955078125,1085.80029296875,9.637207180047993,11.027997442279187,89.0,91.0,-0.024444444444444446,0.042222222222222223,-0.31777777777777777,-0.8,1.14,7.91,11.668998048
1671151530.975944,0,-42.13360595703125,195.520263671875,1017.26708984375,1,166.683349609375,114.941162109375,693.0615234375,2,217.109375,116.3349609375,705.904296875,3,234.5694580078125,194.235595703125,1091.9443359375,9.637207180047993,11.027997442279187,89.0,91.0,-0.024444444444444446,0.042222222222222223,-0.31777777777777777,-0.8,1.14,7.91,11.668998048
1671151530.9858902,0,-43.65802001953125,195.3916015625,1023.766357421875,1,165.2147216796875,115.04248046875,699.693359375,2,215.8892822265625,116.409912109375,712.410888671875,3,232.61767578125,194.147705078125,1098.3995361328125,9.637207180047993,11.027997442279187,89.0,91.0,-0.024444444444444446,0.042222222222222223,-0.31777777777777777,-0.8,1.14,7.91,11.668998048
1671151530.995869,0,-45.48394775390625,194.833251953125,1029.72314453125,1,163.845703125,114.796142578125,705.4287109375,2,214.53076171875,116.38818359375,718.0810546875,3,231.1826171875,193.87939453125,1104.383544921875,9.993334286199202,11.437459678671493,90.0,90.0,-0.04777777777777778,-0.04111111111111111,-0.1811111111111111,-0.89,2.04,10.34,11.695346336
1671151531.005815,0,-46.47216796875,194.927734375,1036.3009033203125,1,162.0960693359375,114.6591796875,711.8984375,2,212.853271484375,116.399658203125,724.394775390625,3,229.8360595703125,194.20068359375,1110.78125,9.993334286199202,11.437459678671493,90.0,90.0,-0.04777777777777778,-0.04111111111111111,-0.1811111111111111,-0.89,2.04,10.34,11.695346336
1671151531.015767,0,-47.78973388671875,195.143310546875,1042.9078369140625,1,160.223876953125,114.605224609375,718.219970703125,2,210.8572998046875,116.190185546875,730.7900390625,3,228.384765625,194.13671875,1117.006591796875,9.993334286199202,11.437459678671493,90.0,90.0,-0.04777777777777778,-0.04111111111111111,-0.1811111111111111,-0.89,2.04,10.34,11.695346336
1671151531.0258431,0,-49.57666015625,195.366455078125,1048.600341796875,1,158.5177001953125,114.679931640625,723.991943359375,2,208.9124755859375,115.9521484375,736.753173828125,3,226.626220703125,194.292724609375,1122.7081298828125,9.993334286199202,11.437459678671493,90.0,90.0,-0.04777777777777778,-0.04111111111111111,-0.1811111111111111,-0.89,2.04,10.34,11.695346336
1671151531.035803,0,-51.28253173828125,195.299072265625,1055.15283203125,1,156.8922119140625,114.506591796875,730.3154296875,2,207.298095703125,115.75048828125,743.311279296875,3,224.8470458984375,194.244140625,1128.875732421875,10.305479095200155,11.732913277848793,90.0,90.0,-0.035555555555555556,0.013333333333333334,-0.07444444444444444,-1.44,1.74,5.91,11.668998048
1671151531.0458412,0,-53.06182861328125,195.346923828125,1060.8260498046875,1,155.2520751953125,114.541748046875,735.98388671875,2,205.4906005859375,115.685302734375,748.884765625,3,223.2706298828125,194.55419921875,1134.492919921875,10.305479095200155,11.732913277848793,90.0,90.0,-0.035555555555555556,0.013333333333333334,-0.07444444444444444,-1.44,1.74,5.91,11.668998048
1671151531.0559573,0,-54.6417236328125,195.32568359375,1067.4085693359375,1,153.5206298828125,114.743896484375,742.149658203125,2,203.8634033203125,115.580078125,754.782958984375,3,221.5880126953125,194.375244140625,1140.9661865234375,10.305479095200155,11.732913277848793,90.0,90.0,-0.035555555555555556,0.013333333333333334,-0.07444444444444444,-1.44,1.74,5.91,11.668998048
1671151531.06577,0,-56.07525634765625,195.499755859375,1073.8782958984375,1,151.59423828125,114.343017578125,748.483154296875,2,201.978515625,115.83251953125,761.165771484375,3,220.150146484375,194.259765625,1147.359619140625,10.305479095200155,11.732913277848793,90.0,90.0,-0.035555555555555556,0.013333333333333334,-0.07444444444444444,-1.44,1.74,5.91,11.668998048
1671151531.0758328,0,-57.47442626953125,195.132568359375,1079.9993896484375,1,149.8828125,114.41259765625,754.415283203125,2,200.06201171875,115.819580078125,767.0634765625,3,218.8924560546875,194.1826171875,1152.9036865234375,10.305479095200155,11.732913277848793,90.0,90.0,-0.035555555555555556,0.013333333333333334,-0.07444444444444444,-1.44,1.74,5.91,11.668998048
1671151531.0858974,0,-59.42633056640625,195.18505859375,1086.30419921875,1,147.9000244140625,114.3388671875,760.8408203125,2,198.10986328125,116.293212890625,772.89306640625,3,217.7679443359375,193.913818359375,1159.2900390625,10.666066783286995,12.101366938381265,90.0,90.0,-0.022222222222222223,-0.021111111111111112,0.06555555555555556,1.38,0.57,12.06,11.662410976
1671151531.095965,0,-60.839111328125,195.4189453125,1092.22802734375,1,146.06591796875,114.494384765625,766.522216796875,2,196.2330322265625,116.207763671875,778.6396484375,3,216.60693359375,193.848388671875,1165.068359375,10.666066783286995,12.101366938381265,90.0,90.0,-0.022222222222222223,-0.021111111111111112,0.06555555555555556,1.38,0.57,12.06,11.662410976
1671151531.1058748,0,-62.3546142578125,195.415771484375,1098.9110107421875,1,144.2303466796875,114.439453125,773.11181640625,2,194.5875244140625,115.8115234375,785.1806640625,3,215.35400390625,193.591796875,1171.625244140625,10.666066783286995,12.101366938381265,90.0,90.0,-0.022222222222222223,-0.021111111111111112,0.06555555555555556,1.38,0.57,12.06,11.662410976
1671151531.115736,0,-64.0380859375,195.51025390625,1105.5986328125,1,142.3699951171875,114.500244140625,779.362548828125,2,192.9248046875,115.727294921875,791.5537109375,3,213.77099609375,193.40478515625,1177.818359375,10.666066783286995,12.101366938381265,90.0,90.0,-0.022222222222222223,-0.021111111111111112,0.06555555555555556,1.38,0.57,12.06,11.662410976
1671151531.125779,0,-65.32757568359375,195.541748046875,1111.4434814453125,1,140.581787109375,114.38720703125,785.263671875,2,191.267822265625,115.865478515625,797.1650390625,3,212.3634033203125,193.211181640625,1183.5860595703125,10.666066783286995,12.101366938381265,90.0,90.0,-0.022222222222222223,-0.021111111111111112,0.06555555555555556,1.38,0.57,12.06,11.662410976
1671151531.1358817,0,-66.7352294921875,195.522705078125,1118.1910400390625,1,138.74853515625,114.278076171875,791.66015625,2,189.1336669921875,115.8916015625,803.605224609375,3,210.7298583984375,193.06396484375,1190.0819091796875,11.047230704173684,12.454951992461629,90.0,90.0,0.04777777777777778,-0.021111111111111112,0.11,-1.61,1.39,12.21,11.678878656
1671151531.1458502,0,-68.163330078125,195.685302734375,1124.0367431640625,1,137.010986328125,114.387451171875,797.2255859375,2,187.535888671875,115.688720703125,809.15673828125,3,209.5416259765625,193.093505859375,1195.646484375,11.047230704173684,12.454951992461629,90.0,90.0,0.04777777777777778,-0.021111111111111112,0.11,-1.61,1.39,12.21,11.678878656
1671151531.1559088,0,-69.564453125,195.840087890625,1130.7022705078125,1,135.005859375,114.277587890625,803.68359375,2,185.467041015625,115.61083984375,815.515625,3,208.0396728515625,193.343505859375,1201.901123046875,11.047230704173684,12.454951992461629,90.0,90.0,0.04777777777777778,-0.021111111111111112,0.11,-1.61,1.39,12.21,11.678878656
1671151531.165774,0,-70.65216064453125,195.73193359375,1137.5767822265625,1,132.912353515625,114.373779296875,810.012451171875,2,183.41162109375,115.605712890625,821.814208984375,3,206.302490234375,193.00341796875,1208.257080078125,11.047230704173684,12.454951992461629,90.0,90.0,0.04777777777777778,-0.021111111111111112,0.11,-1.61,1.39,12.21,11.678878656
1671151531.1758254,0,-72.1158447265625,195.8486328125,1143.494140625,1,131.1043701171875,114.377197265625,815.76513671875,2,181.588623046875,115.54638671875,827.446533203125,3,205.3328857421875,192.912109375,1213.8543701171875,11.047230704173684,12.454951992461629,90.0,90.0,0.04777777777777778,-0.021111111111111112,0.11,-1.61,1.39,12.21,11.678878656
1671151531.1857827,0,-74.260986328125,195.696044921875,1150.1129150390625,1,129.1632080078125,114.45849609375,821.874267578125,2,179.634033203125,115.541259765625,833.73681640625,3,203.8663330078125,192.640625,1220.1685791015625,11.047230704173684,12.454951992461629,90.0,90.0,0.04777777777777778,-0.021111111111111112,0.11,-1.61,1.39,12.21,11.678878656
1671151531.195772,0,-75.60186767578125,195.6298828125,1156.05810546875,1,127.2744140625,114.360595703125,827.671142578125,2,177.9405517578125,115.210205078125,839.05419921875,3,202.765869140625,192.748291015625,1225.8427734375,11.418849938983053,12.849833401881549,90.0,90.0,-0.057777777777777775,-0.027777777777777776,0.12444444444444444,3.22,1.72,7.93,11.688759264
1671151531.2057865,0,-77.30035400390625,195.4814453125,1162.8458251953125,1,125.3624267578125,114.380126953125,834.09375,2,175.7249755859375,115.44482421875,845.567626953125,3,201.4674072265625,192.79443359375,1231.8548583984375,11.418849938983053,12.849833401881549,90.0,90.0,-0.057777777777777775,-0.027777777777777776,0.12444444444444444,3.22,1.72,7.93,11.688759264
1671151531.2157757,0,-78.65185546875,195.7685546875,1169.3199462890625,1,123.228271484375,114.47998046875,840.49462890625,2,173.84521484375,115.52783203125,851.57861328125,3,199.849853515625,192.749755859375,1238.1490478515625,11.418849938983053,12.849833401881549,90.0,90.0,-0.057777777777777775,-0.027777777777777776,0.12444444444444444,3.22,1.72,7.93,11.688759264
1671151531.2258291,0,-79.7042236328125,195.578369140625,1175.6112060546875,1,121.514404296875,114.218505859375,846.317626953125,2,172.1666259765625,115.7314453125,857.27197265625,3,198.622314453125,192.488037109375,1243.9639892578125,11.418849938983053,12.849833401881549,90.0,90.0,-0.057777777777777775,-0.027777777777777776,0.12444444444444444,3.22,1.72,7.93,11.688759264
1671151531.23591,0,-81.00537109375,195.47802734375,1182.3897705078125,1,119.5908203125,114.291748046875,852.437744140625,2,170.31396484375,115.666015625,863.582275390625,3,197.25244140625,192.603271484375,1249.981689453125,11.776463905779472,13.141593831069134,77.0,100.0,-0.04,0.022222222222222223,0.15666666666666668,2.49,1.72,9.96,11.668998048
1671151531.2459145,0,-82.0155029296875,195.285400390625,1188.507568359375,1,117.8414306640625,114.14501953125,858.04248046875,2,168.3497314453125,115.126708984375,869.309814453125,3,196.0555419921875,192.68212890625,1255.491943359375,11.776463905779472,13.141593831069134,77.0,100.0,-0.04,0.022222222222222223,0.15666666666666668,2.49,1.72,9.96,11.668998048
1671151531.255758,0,-84.02276611328125,195.46875,1194.7880859375,1,115.890869140625,114.203857421875,864.5849609375,2,166.4996337890625,115.5849609375,875.579345703125,3,194.5830078125,192.419189453125,1261.95166015625,11.776463905779472,13.141593831069134,77.0,100.0,-0.04,0.022222222222222223,0.15666666666666668,2.49,1.72,9.96,11.668998048
1671151531.2657907,0,-85.2806396484375,195.43798828125,1201.367919921875,1,114.456787109375,114.059326171875,871.108154296875,2,164.884033203125,115.26904296875,881.9873046875,3,193.2086181640625,192.43408203125,1268.514892578125,11.776463905779472,13.141593831069134,77.0,100.0,-0.04,0.022222222222222223,0.15666666666666668,2.49,1.72,9.96,11.668998048
1671151531.2758102,0,-87.15765380859375,195.542236328125,1207.0108642578125,1,113.2265625,114.095458984375,877.2139892578125,2,163.7303466796875,115.221435546875,888.2120361328125,3,191.728515625,192.537353515625,1274.5537109375,11.776463905779472,13.141593831069134,77.0,100.0,-0.04,0.022222222222222223,0.15666666666666668,2.49,1.72,9.96,11.668998048
1671151531.2857683,0,-88.7357177734375,195.335205078125,1213.7730712890625,1,112.0074462890625,113.955078125,883.888916015625,2,162.5003662109375,115.09130859375,894.969970703125,3,190.0987548828125,192.185302734375,1281.6124267578125,11.776463905779472,13.141593831069134,77.0,100.0,-0.04,0.022222222222222223,0.15666666666666668,2.49,1.72,9.96,11.668998048
1671151531.295772,0,-90.13604736328125,195.28271484375,1219.22998046875,1,111.282470703125,113.777099609375,889.7578125,2,161.6376953125,114.9951171875,901.198486328125,3,188.6832275390625,191.93017578125,1288.0701904296875,11.776463905779472,13.141593831069134,77.0,100.0,-0.04,0.022222222222222223,0.15666666666666668,2.49,1.72,9.96,11.668998048
1671151531.3057697,0,-91.2884521484375,194.9677734375,1225.6566162109375,1,110.92822265625,113.54248046875,896.1944580078125,2,161.1708984375,114.9658203125,907.679931640625,3,186.5501708984375,192.151123046875,1294.9288330078125,12.12827431973491,13.485058640112744,35.5,92.9,0.0011111111111111111,-0.12111111111111111,0.14222222222222222,0.48,1.55,9.81,11.672291584
1671151531.3157725,0,-93.33868408203125,195.0126953125,1231.4166259765625,1,110.9163818359375,113.3662109375,902.45849609375,2,161.1968994140625,114.85888671875,913.920654296875,3,184.60888671875,192.02685546875,1301.9144287109375,12.12827431973491,13.485058640112744,35.5,92.9,0.0011111111111111111,-0.12111111111111111,0.14222222222222222,0.48,1.55,9.81,11.672291584
1671151531.3257723,0,-94.8572998046875,195.12890625,1236.416259765625,1,111.0157470703125,113.44140625,908.1292724609375,2,161.4613037109375,114.859375,919.85986328125,3,182.92529296875,191.956298828125,1308.06787109375,12.12827431973491,13.485058640112744,35.5,92.9,0.0011111111111111111,-0.12111111111111111,0.14222222222222222,0.48,1.55,9.81,11.672291584
