Time,Marker0_ID,Marker0_x,Marker0_y,Marker0_z,Marker1_ID,Marker1_x,Marker1_y,Marker1_z,Marker2_ID,Marker2_x,Marker2_y,Marker2_z,Marker3_ID,Marker3_x,Marker3_y,Marker3_z,thetaR,thetaL,dutyR,dutyL,wx,wy,wz,ax,ay,az,Vbatt
1671151701.8334649,0,0,0,0,0,0,0,0,0,0,0,0,0,0,0,0,0,0,0,0,0,0,0,0,0,0,0
1671151701.8435395,0,-85.00347900390625,195.27880859375,61.617431640625,1,18.22900390625,115.994384765625,-309.813720703125,2,71.2974853515625,117.677001953125,-312.310791015625,3,196.6790771484375,195.998046875,50.76220703125,0,0,0,0,0,0,0,0,0,0,0
1671151701.8535182,0,-85.03997802734375,195.275146484375,61.59716796875,1,18.17138671875,115.942626953125,-309.8095703125,2,71.3145751953125,117.635498046875,-312.262451171875,3,196.6678466796875,195.98974609375,50.787353515625,0,0,0,0,0,0,0,0,0,0,0
1671151701.8635266,0,-85.03326416015625,195.286376953125,61.60009765625,1,18.1829833984375,115.966064453125,-309.786376953125,2,71.2769775390625,117.70166015625,-312.33203125,3,196.667236328125,195.98876953125,50.791259765625,0,0,0,0,0,0,0,0,0,0,0
1671151701.8735087,0,-85.01055908203125,195.260009765625,61.6357421875,1,18.185546875,115.97802734375,-309.782958984375,2,71.3046875,117.672607421875,-312.26220703125,3,196.643310546875,195.988037109375,50.7734375,0,0,0,0,0,0,0,0,0,0,0
1671151701.8836079,0,-85.07757568359375,195.288818359375,61.629638671875,1,18.119384765625,116.00048828125,-309.804931640625,2,71.3162841796875,117.665771484375,-312.281005859375,3,196.628662109375,195.978515625,50.767578125,0,0,0,0,0,0,0,0,0,0,0
1671151701.8934894,0,-84.983642578125,195.298095703125,61.643798828125,1,18.2083740234375,115.967041015625,-309.812744140625,2,71.28271484375,117.6884765625,-312.29833984375,3,196.6357421875,195.978271484375,50.781005859375,0,0,0,0,0,0,0,0,0,0,0
1671151701.9035058,0,-85.06524658203125,195.25,61.595947265625,1,18.1246337890625,115.98291015625,-309.788330078125,2,71.2877197265625,117.6513671875,-312.26025390625,3,196.62255859375,195.9970703125,50.792724609375,0,0,0,0,0,0,0,0,0,0,0
1671151701.9134932,0,-85.08477783203125,195.265869140625,61.6103515625,1,18.1317138671875,115.987060546875,-309.736328125,2,71.3017578125,117.63525390625,-312.279296875,3,196.6673583984375,196.0009765625,50.801025390625,0,0,0,0,0,0,0,0,0,0,0
1671151701.9235263,0,-85.0745849609375,195.265380859375,61.63232421875,1,18.2445068359375,115.94482421875,-309.83837890625,2,71.3123779296875,117.65185546875,-312.244140625,3,196.6649169921875,195.975830078125,50.777587890625,0,0,0,0,0,0,0,0,0,0,0
1671151701.93349,0,-85.03375244140625,195.2646484375,61.611083984375,1,18.1876220703125,115.95703125,-309.81494140625,2,71.2777099609375,117.67138671875,-312.2861328125,3,196.643798828125,195.98876953125,50.761474609375,0,0,0,0,0,0,0,0,0,0,0
1671151701.9435008,0,-85.08428955078125,195.23291015625,61.60107421875,1,18.2132568359375,115.947998046875,-309.795654296875,2,71.3016357421875,117.651123046875,-312.299560546875,3,196.640380859375,196.00634765625,50.801025390625,0.0,0.0,0.0,0.0,0.2822222222222222,0.0011111111111111111,0.0011111111111111111,-0.19,1.87,9.6,11.688759264
1671151701.9534566,0,-85.041748046875,195.232666015625,61.602294921875,1,18.1248779296875,115.97509765625,-309.778076171875,2,71.3123779296875,117.64404296875,-312.26025390625,3,196.6656494140625,195.996826171875,50.797607421875,0.0,0.0,0.0,0.0,0.2822222222222222,0.0011111111111111111,0.0011111111111111111,-0.19,1.87,9.6,11.688759264
1671151701.9634755,0,-85.06829833984375,195.208984375,61.615966796875,1,18.1207275390625,115.98779296875,-309.79638671875,2,71.3028564453125,117.702392578125,-312.295166015625,3,196.671630859375,196.0224609375,50.788330078125,0.0,0.0,0.0,0.0,0.2822222222222222,0.0011111111111111111,0.0011111111111111111,-0.19,1.87,9.6,11.688759264
1671151701.9734972,0,-85.12451171875,195.333984375,61.6103515625,1,18.2166748046875,115.946044921875,-309.828125,2,71.3062744140625,117.6552734375,-312.312255859375,3,196.623291015625,196.00927734375,50.744140625,0.0,0.0,0.0,0.0,-0.0011111111111111111,-0.0,-0.0011111111111111111,-0.19,1.87,9.63,11.698639872000001
1671151701.9835045,0,-85.02056884765625,195.280029296875,61.630126953125,1,18.1490478515625,115.9658203125,-309.80322265625,2,71.3233642578125,117.67431640625,-312.2705078125,3,196.619384765625,195.9775390625,50.754150390625,0.0,0.0,0.0,0.0,-0.0011111111111111111,-0.0,-0.0011111111111111111,-0.19,1.87,9.63,11.698639872000001
1671151701.9934747,0,-85.0950927734375,195.29638671875,61.603759765625,1,18.229248046875,115.975341796875,-309.818359375,2,71.3138427734375,117.684814453125,-312.321533203125,3,196.668701171875,196.020751953125,50.766357421875,0.0,0.0,0.0,0.0,-0.0011111111111111111,-0.0,-0.0011111111111111111,-0.19,1.87,9.63,11.698639872000001
1671151702.003488,0,-85.07366943359375,195.23681640625,61.59228515625,1,18.1771240234375,115.952880859375,-309.822998046875,2,71.5623779296875,117.5166015625,-312.353759765625,3,196.678955078125,196.04833984375,50.80126953125,0.0,0.0,0.0,0.0,-0.0011111111111111111,-0.0,-0.0011111111111111111,-0.19,1.87,9.63,11.698639872000001
1671151702.0134768,0,-85.08453369140625,195.227783203125,61.610595703125,1,18.1656494140625,115.96142578125,-309.84228515625,2,71.302490234375,117.6875,-312.291259765625,3,196.640869140625,196.024169921875,50.785888671875,0.0,0.0,0.0,0.0,-0.0011111111111111111,-0.0,-0.0011111111111111111,-0.19,1.87,9.63,11.698639872000001
1671151702.023534,0,-85.09698486328125,195.18701171875,61.572021484375,1,18.2235107421875,115.97216796875,-309.841064453125,2,71.3187255859375,117.6953125,-312.297607421875,3,196.64208984375,196.0302734375,50.766357421875,0.0,0.0,0.0,0.0,-0.0011111111111111111,-0.0,-0.0011111111111111111,-0.19,1.87,9.63,11.698639872000001
1671151702.0334857,0,-85.10784912109375,195.29736328125,61.61083984375,1,18.1561279296875,115.953125,-309.80712890625,2,71.3056640625,117.64453125,-312.27197265625,3,196.66943359375,196.00146484375,50.776123046875,0.0,0.0,0.0,0.0,-0.2833333333333333,-0.0011111111111111111,-0.0,-0.19,1.85,9.61,11.678878656
1671151702.0434864,0,-85.10430908203125,195.275390625,61.63232421875,1,18.202392578125,115.9423828125,-309.826416015625,2,71.2911376953125,117.697509765625,-312.317138671875,3,196.6748046875,196.042236328125,50.77392578125,0.0,0.0,0.0,0.0,-0.2833333333333333,-0.0011111111111111111,-0.0,-0.19,1.85,9.61,11.678878656
1671151702.0536191,0,-85.12445068359375,195.228759765625,61.578857421875,1,18.1285400390625,115.984619140625,-309.783935546875,2,71.2962646484375,117.656005859375,-312.2607421875,3,196.656005859375,196.03955078125,50.77880859375,0.0,0.0,0.0,0.0,-0.2833333333333333,-0.0011111111111111111,-0.0,-0.19,1.85,9.61,11.678878656
1671151702.0635405,0,-85.12078857421875,195.232421875,61.59228515625,1,18.1868896484375,115.9501953125,-309.78271484375,2,71.283935546875,117.668212890625,-312.29541015625,3,196.6619873046875,196.015380859375,50.79443359375,0.0,0.0,0.0,0.0,-0.2833333333333333,-0.0011111111111111111,-0.0,-0.19,1.85,9.61,11.678878656
1671151702.0735075,0,-85.10162353515625,195.20654296875,61.601318359375,1,18.3125,115.93603515625,-309.84716796875,2,71.28515625,117.68017578125,-312.306884765625,3,196.640869140625,195.9990234375,50.79541015625,0.0,0.0,0.0,0.0,-0.2833333333333333,-0.0011111111111111111,-0.0,-0.19,1.85,9.61,11.678878656
1671151702.0835273,0,-85.06463623046875,195.256103515625,61.630126953125,1,18.1956787109375,115.96435546875,-309.790283203125,2,71.3009033203125,117.6904296875,-312.281494140625,3,196.647216796875,195.98095703125,50.7578125,0.0,0.0,0.0,0.0,0.0022222222222222222,0.0033333333333333335,-0.0,-0.19,1.86,9.59,11.698639872000001
1671151702.093495,0,-85.09429931640625,195.266357421875,61.614990234375,1,18.2996826171875,115.88623046875,-309.82421875,2,71.2701416015625,117.690673828125,-312.333251953125,3,196.6513671875,195.9775390625,50.789306640625,0.0,0.0,0.0,0.0,0.0022222222222222222,0.0033333333333333335,-0.0,-0.19,1.86,9.59,11.698639872000001
1671151702.1034555,0,-85.09796142578125,195.220947265625,61.590576171875,1,18.1683349609375,115.96728515625,-309.798095703125,2,71.3123779296875,117.671875,-312.2666015625,3,196.6533203125,195.997802734375,50.78369140625,0.0,0.0,0.0,0.0,0.0022222222222222222,0.0033333333333333335,-0.0,-0.19,1.86,9.59,11.698639872000001
1671151702.1134682,0,-85.1280517578125,195.181884765625,61.59912109375,1,18.1304931640625,115.9716796875,-309.77734375,2,71.2843017578125,117.708740234375,-312.30712890625,3,196.6328125,196.018310546875,50.767578125,0.0,0.0,0.0,0.0,0.0022222222222222222,0.0033333333333333335,-0.0,-0.19,1.86,9.59,11.698639872000001
1671151702.1234958,0,-85.07806396484375,195.2431640625,61.623779296875,1,18.221923828125,115.94140625,-309.799072265625,2,71.3033447265625,117.671142578125,-312.297119140625,3,196.636474609375,195.989013671875,50.7646484375,0.0,0.0,0.0,0.0,0.0011111111111111111,-0.0022222222222222222,-0.0011111111111111111,-0.18,1.86,9.62,11.698639872000001
1671151702.1334887,0,-85.0621337890625,195.22802734375,61.624267578125,1,18.19189453125,115.93505859375,-309.7724609375,2,71.3433837890625,117.646240234375,-312.24072265625,3,196.627685546875,196.0322265625,50.749267578125,0.0,0.0,0.0,0.0,0.0011111111111111111,-0.0022222222222222222,-0.0011111111111111111,-0.18,1.86,9.62,11.698639872000001
1671151702.1434934,0,-85.04620361328125,195.217529296875,61.606689453125,1,18.2501220703125,115.9306640625,-309.81982421875,2,71.2987060546875,117.648193359375,-312.269775390625,3,196.6695556640625,196.0341796875,50.788818359375,0.0,0.0,0.0,0.0,0.0011111111111111111,-0.0022222222222222222,-0.0011111111111111111,-0.18,1.86,9.62,11.698639872000001
1671151702.1535172,0,-85.03033447265625,195.22021484375,61.603759765625,1,18.1343994140625,115.968505859375,-309.781494140625,2,71.330810546875,117.645263671875,-312.248779296875,3,196.6280517578125,196.0361328125,50.77001953125,0.0,0.0,0.0,0.0,0.0011111111111111111,-0.0022222222222222222,-0.0011111111111111111,-0.18,1.86,9.62,11.698639872000001
1671151702.1634922,0,-85.09649658203125,195.25390625,61.601318359375,1,18.1962890625,115.9560546875,-309.791748046875,2,71.3087158203125,117.703369140625,-312.31982421875,3,196.619873046875,196.045654296875,50.760009765625,0.0,0.0,0.0,0.0,0.0011111111111111111,-0.0022222222222222222,-0.0011111111111111111,-0.18,1.86,9.62,11.698639872000001
1671151702.173531,0,-85.0841064453125,195.308349609375,61.6298828125,1,18.1820068359375,115.967529296875,-309.80078125,2,71.3050537109375,117.65234375,-312.268310546875,3,196.61865234375,195.992431640625,50.75244140625,0.0,0.0,0.0,0.0,0.0011111111111111111,-0.0022222222222222222,-0.0011111111111111111,-0.18,1.86,9.62,11.698639872000001
1671151702.1835139,0,-85.086669921875,195.29931640625,61.601806640625,1,18.21435546875,115.95849609375,-309.78662109375,2,71.3076171875,117.66552734375,-312.2734375,3,196.65625,195.99560546875,50.779541015625,0.0,0.0,0.0,0.0,-0.0022222222222222222,-0.0011111111111111111,-0.2833333333333333,-0.18,1.85,9.59,11.682172192000001
1671151702.1934934,0,-85.08251953125,195.2939453125,61.609130859375,1,18.197021484375,115.982421875,-309.817138671875,2,71.283935546875,117.706298828125,-312.3310546875,3,196.65576171875,196.017333984375,50.8076171875,0.0,0.0,0.0,0.0,-0.0022222222222222222,-0.0011111111111111111,-0.2833333333333333,-0.18,1.85,9.59,11.682172192000001
1671151702.2034872,0,-85.05072021484375,195.233642578125,61.6015625,1,18.1749267578125,115.979736328125,-309.82275390625,2,71.2861328125,117.647705078125,-312.2763671875,3,196.650146484375,196.027587890625,50.7822265625,0.0,0.0,0.0,0.0,-0.0022222222222222222,-0.0011111111111111111,-0.2833333333333333,-0.18,1.85,9.59,11.682172192000001
1671151702.2134914,0,-85.06427001953125,195.2802734375,61.60302734375,1,18.1019287109375,115.979248046875,-309.81396484375,2,71.2960205078125,117.6474609375,-312.3134765625,3,196.64501953125,196.0234375,50.768798828125,0.0,0.0,0.0,0.0,-0.0022222222222222222,-0.0011111111111111111,-0.2833333333333333,-0.18,1.85,9.59,11.682172192000001
1671151702.2235231,0,-85.0628662109375,195.315185546875,61.6318359375,1,18.223388671875,115.967529296875,-309.8037109375,2,71.3375244140625,117.66015625,-312.28369140625,3,196.614990234375,195.989501953125,50.7724609375,0.0,0.0,0.0,0.0,-0.0011111111111111111,0.0011111111111111111,-0.0011111111111111111,-0.2,1.86,9.63,11.698639872000001
1671151702.2335272,0,-85.051513671875,195.2958984375,61.615478515625,1,18.1890869140625,115.931640625,-309.78955078125,2,71.3134765625,117.65283203125,-312.26611328125,3,196.63720703125,195.9794921875,50.74169921875,0.0,0.0,0.0,0.0,-0.0011111111111111111,0.0011111111111111111,-0.0011111111111111111,-0.2,1.86,9.63,11.698639872000001
1671151702.243594,0,-85.06536865234375,195.273681640625,61.619384765625,1,18.18408203125,115.999755859375,-309.835205078125,2,71.2908935546875,117.7216796875,-312.32568359375,3,196.6636962890625,196.055908203125,50.759521484375,0.0,0.0,0.0,0.0,-0.0011111111111111111,0.0011111111111111111,-0.0011111111111111111,-0.2,1.86,9.63,11.698639872000001
1671151702.253522,0,-85.0772705078125,195.296875,61.629638671875,1,18.143310546875,115.941162109375,-309.79638671875,2,71.31103515625,117.68603515625,-312.284423828125,3,196.65087890625,196.019775390625,50.785400390625,0.0,0.0,0.0,0.0,-0.0011111111111111111,0.0011111111111111111,-0.0011111111111111111,-0.2,1.86,9.63,11.698639872000001
1671151702.263492,0,-85.089599609375,195.256591796875,61.5869140625,1,18.1632080078125,115.927001953125,-309.798095703125,2,71.2919921875,117.708740234375,-312.330078125,3,196.6383056640625,196.015869140625,50.7705078125,0.0,0.0,0.0,0.0,-0.0011111111111111111,0.0011111111111111111,-0.0011111111111111111,-0.2,1.86,9.63,11.698639872000001
1671151702.2735105,0,-85.1300048828125,195.29150390625,61.5966796875,1,18.1654052734375,116.0126953125,-309.8173828125,2,71.3145751953125,117.656982421875,-312.285888671875,3,196.6478271484375,195.99462890625,50.771240234375,0.0,0.0,0.0,0.0,-0.0011111111111111111,0.0011111111111111111,-0.0011111111111111111,-0.2,1.86,9.63,11.698639872000001
1671151702.2835279,0,-85.04168701171875,195.2568359375,61.606201171875,1,18.1400146484375,115.97314453125,-309.786376953125,2,71.315673828125,117.65966796875,-312.287109375,3,196.652587890625,195.991455078125,50.758056640625,0.0,0.0,0.0,0.0,-0.0011111111111111111,0.0011111111111111111,-0.0011111111111111111,-0.2,1.86,9.63,11.698639872000001
1671151702.2934763,0,-85.133544921875,195.29833984375,61.5908203125,1,18.15478515625,115.99609375,-309.79052734375,2,71.2965087890625,117.681640625,-312.307861328125,3,196.628662109375,196.063232421875,50.785888671875,0.0,0.0,0.0,0.0,-0.0011111111111111111,0.0033333333333333335,0.0011111111111111111,-0.18,1.85,9.63,11.685465728
1671151702.3034916,0,-85.13909912109375,195.259765625,61.6015625,1,18.1771240234375,115.92626953125,-309.8095703125,2,71.3221435546875,117.654052734375,-312.275390625,3,196.65625,196.02197265625,50.802978515625,0.0,0.0,0.0,0.0,-0.0011111111111111111,0.0033333333333333335,0.0011111111111111111,-0.18,1.85,9.63,11.685465728
1671151702.3134885,0,-85.0931396484375,195.277587890625,61.608154296875,1,18.16455078125,115.926513671875,-309.79150390625,2,71.310791015625,117.6728515625,-312.2841796875,3,196.640869140625,196.0205078125,50.754638671875,0.0,0.0,0.0,0.0,-0.0011111111111111111,0.0033333333333333335,0.0011111111111111111,-0.18,1.85,9.63,11.685465728
1671151702.3235426,0,-85.0469970703125,195.291259765625,61.619140625,1,18.231689453125,115.974609375,-309.815185546875,2,71.3046875,117.68603515625,-312.28515625,3,196.6357421875,195.991943359375,50.739990234375,0.0,0.0,0.0,0.0,0.0,-0.0011111111111111111,-0.0022222222222222222,-0.19,1.85,9.66,11.6920528
1671151702.3334992,0,-85.09771728515625,195.32421875,61.638427734375,1,18.1800537109375,115.982666015625,-309.8212890625,2,71.3167724609375,117.67578125,-312.283935546875,3,196.6357421875,196.0146484375,50.744873046875,0.0,0.0,0.0,0.0,0.0,-0.0011111111111111111,-0.0022222222222222222,-0.19,1.85,9.66,11.6920528
1671151702.3434865,0,-85.090087890625,195.274658203125,61.622314453125,1,18.23193359375,115.953125,-309.798583984375,2,71.281494140625,117.666259765625,-312.331298828125,3,196.6337890625,195.98681640625,50.78466796875,0.0,0.0,0.0,0.0,0.0,-0.0011111111111111111,-0.0022222222222222222,-0.19,1.85,9.66,11.6920528
1671151702.3534813,0,-85.1075439453125,195.26123046875,61.593505859375,1,18.1826171875,115.970947265625,-309.794189453125,2,71.2933349609375,117.6533203125,-312.31689453125,3,196.664306640625,196.00927734375,50.77783203125,0.0,0.0,0.0,0.0,0.0,-0.0011111111111111111,-0.0022222222222222222,-0.19,1.85,9.66,11.6920528
1671151702.3634894,0,-85.10430908203125,195.26611328125,61.588623046875,1,18.2041015625,115.950927734375,-309.791259765625,2,71.3265380859375,117.6845703125,-312.28125,3,196.638427734375,196.028564453125,50.782470703125,0.0,0.0,0.0,0.0,0.0,-0.0011111111111111111,-0.0022222222222222222,-0.19,1.85,9.66,11.6920528
1671151702.373528,0,-85.07476806640625,195.285888671875,61.628173828125,1,18.2384033203125,115.99658203125,-309.78369140625,2,71.32958984375,117.683349609375,-312.274658203125,3,196.617431640625,196.00146484375,50.740234375,0.0,0.0,0.0,0.0,0.0,-0.0022222222222222222,-0.0022222222222222222,-0.2,1.85,9.6,11.698639872000001
1671151702.383585,0,-85.03485107421875,195.28466796875,61.6162109375,1,18.164794921875,115.936767578125,-309.80517578125,2,71.328125,117.656005859375,-312.297607421875,3,196.6361083984375,196.006591796875,50.745849609375,0.0,0.0,0.0,0.0,0.0,-0.0022222222222222222,-0.0022222222222222222,-0.2,1.85,9.6,11.698639872000001
1671151702.3934877,0,-85.01763916015625,195.265869140625,61.6123046875,1,18.1973876953125,115.97607421875,-309.841064453125,2,71.2861328125,117.642578125,-312.299560546875,3,196.6409912109375,196.004150390625,50.792236328125,0.0,0.0,0.0,0.0,0.0,-0.0022222222222222222,-0.0022222222222222222,-0.2,1.85,9.6,11.698639872000001
1671151702.4034946,0,-85.03692626953125,195.246826171875,61.607666015625,1,18.1776123046875,115.955078125,-309.800048828125,2,71.3204345703125,117.66748046875,-312.27685546875,3,196.6524658203125,196.0048828125,50.79736328125,0.0,0.0,0.0,0.0,0.0,-0.0022222222222222222,-0.0022222222222222222,-0.2,1.85,9.6,11.698639872000001
1671151702.4134865,0,-84.9130859375,195.33203125,61.638671875,1,18.1737060546875,115.9658203125,-309.782958984375,2,71.2933349609375,117.71923828125,-312.325439453125,3,196.6873779296875,196.029052734375,50.80322265625,0.0,0.0,0.0,0.0,0.0011111111111111111,-0.0,-0.0011111111111111111,-0.17,1.85,9.65,11.688759264
1671151702.4235017,0,-85.017822265625,195.3291015625,61.6328125,1,18.246826171875,115.93505859375,-309.789794921875,2,71.3160400390625,117.6904296875,-312.27880859375,3,196.6617431640625,195.99169921875,50.77978515625,0.0,0.0,0.0,0.0,0.0011111111111111111,-0.0,-0.0011111111111111111,-0.17,1.85,9.65,11.688759264
1671151702.4335167,0,-85.05596923828125,195.29541015625,61.612548828125,1,18.150390625,115.96484375,-309.798583984375,2,71.315185546875,117.665771484375,-312.280029296875,3,196.6429443359375,195.977294921875,50.77197265625,0.0,0.0,0.0,0.0,0.0011111111111111111,-0.0,-0.0011111111111111111,-0.17,1.85,9.65,11.688759264
1671151702.4434536,0,-85.04351806640625,195.34521484375,61.62353515625,1,18.1680908203125,115.969482421875,-309.8369140625,2,71.31005859375,117.6884765625,-312.288818359375,3,196.6600341796875,196.014404296875,50.78955078125,0.0,0.0,0.0,0.0,0.0011111111111111111,-0.0,-0.0011111111111111111,-0.17,1.85,9.65,11.688759264
1671151702.4534776,0,-84.9769287109375,195.291015625,61.62451171875,1,18.1600341796875,115.956298828125,-309.797119140625,2,71.3304443359375,117.629638671875,-312.26220703125,3,196.637939453125,196.030029296875,50.778564453125,0.0,0.0,0.0,0.0,0.0011111111111111111,-0.0,-0.0011111111111111111,-0.17,1.85,9.65,11.688759264
1671151702.463492,0,-85.0152587890625,195.3056640625,61.592529296875,1,18.1676025390625,115.9580078125,-309.81494140625,2,71.285400390625,117.7587890625,-312.2841796875,3,196.6728515625,196.00146484375,50.806396484375,0.0,0.0,0.0,0.0,0.0011111111111111111,-0.0,-0.0011111111111111111,-0.17,1.85,9.65,11.688759264
1671151702.4734843,0,-84.9725341796875,195.314697265625,61.638671875,1,18.2198486328125,115.9443359375,-309.815185546875,2,71.322021484375,117.683837890625,-312.265869140625,3,196.63916015625,195.97314453125,50.79736328125,0.0,0.0,0.0,0.0,-0.28444444444444444,-0.0022222222222222222,-0.0,-0.2,1.87,9.63,11.6920528
1671151702.483492,0,-85.05230712890625,195.264404296875,61.59521484375,1,18.1646728515625,115.966064453125,-309.807861328125,2,71.2928466796875,117.664794921875,-312.258544921875,3,196.636962890625,195.99462890625,50.773193359375,0.0,0.0,0.0,0.0,-0.28444444444444444,-0.0022222222222222222,-0.0,-0.2,1.87,9.63,11.6920528
1671151702.4934802,0,-85.06787109375,195.29443359375,61.62646484375,1,18.2156982421875,115.960205078125,-309.81103515625,2,71.2877197265625,117.65234375,-312.29443359375,3,196.650146484375,195.98828125,50.77587890625,0.0,0.0,0.0,0.0,-0.28444444444444444,-0.0022222222222222222,-0.0,-0.2,1.87,9.63,11.6920528
1671151702.5034869,0,-84.9945068359375,195.301513671875,61.6142578125,1,18.159912109375,115.978759765625,-309.77978515625,2,71.3172607421875,117.680419921875,-312.25927734375,3,196.67138671875,196.065673828125,50.781494140625,0.0,0.0,0.0,0.0,-0.28444444444444444,-0.0022222222222222222,-0.0,-0.2,1.87,9.63,11.6920528
1671151702.5134606,0,-85.02178955078125,195.266845703125,61.612060546875,1,18.1705322265625,115.967041015625,-309.78515625,2,71.3131103515625,117.677978515625,-312.299560546875,3,196.672607421875,195.997314453125,50.784912109375,0.0,0.0,0.0,0.0,-0.28444444444444444,-0.0022222222222222222,-0.0,-0.2,1.87,9.63,11.6920528
1671151702.5234995,0,-85.06451416015625,195.260986328125,61.63427734375,1,18.2811279296875,115.945556640625,-309.825439453125,2,71.33056640625,117.6318359375,-312.255615234375,3,196.62158203125,195.998291015625,50.742431640625,0.0,0.0,0.0,0.0,0.0,-0.0,-0.0011111111111111111,-0.2,1.84,9.63,11.688759264
1671151702.5334837,0,-85.02215576171875,195.232421875,61.614013671875,1,18.128173828125,115.996826171875,-309.77392578125,2,71.3023681640625,117.657470703125,-312.273193359375,3,196.61962890625,195.9951171875,50.744384765625,0.0,0.0,0.0,0.0,0.0,-0.0,-0.0011111111111111111,-0.2,1.84,9.63,11.688759264
1671151702.5435202,0,-84.99737548828125,195.257568359375,61.618408203125,1,18.2513427734375,115.981201171875,-309.83642578125,2,71.3221435546875,117.704345703125,-312.291748046875,3,196.6787109375,196.01318359375,50.754638671875,0.0,0.0,0.0,0.0,0.0,-0.0,-0.0011111111111111111,-0.2,1.84,9.63,11.688759264
1671151702.553602,0,-85.041748046875,195.248779296875,61.612060546875,1,18.1483154296875,115.958251953125,-309.789794921875,2,71.31494140625,117.678466796875,-312.270751953125,3,196.841064453125,195.8955078125,50.7412109375,0.0,0.0,0.0,0.0,0.0,-0.0,-0.0011111111111111111,-0.2,1.84,9.63,11.688759264
1671151702.563482,0,-85.04974365234375,195.234375,61.5849609375,1,18.1453857421875,116.010009765625,-309.804443359375,2,71.3077392578125,117.68310546875,-312.2978515625,3,196.6553955078125,196.02197265625,50.797119140625,0.0,0.0,0.0,0.0,0.0,-0.0,-0.0011111111111111111,-0.2,1.84,9.63,11.688759264
1671151702.5735002,0,-85.03863525390625,195.290771484375,61.619873046875,1,18.1707763671875,115.994140625,-309.78271484375,2,71.3033447265625,117.6689453125,-312.28662109375,3,196.6656494140625,195.99169921875,50.7939453125,0.0,0.0,0.0,0.0,-0.0011111111111111111,-0.2788888888888889,0.0011111111111111111,-0.18,1.85,9.59,11.672291584
1671151702.5835357,0,-85.05670166015625,195.27783203125,61.6328125,1,18.1646728515625,115.956298828125,-309.803955078125,2,71.29345703125,117.6962890625,-312.299072265625,3,196.6497802734375,196.001708984375,50.777099609375,0.0,0.0,0.0,0.0,-0.0011111111111111111,-0.2788888888888889,0.0011111111111111111,-0.18,1.85,9.59,11.672291584
1671151702.5934992,0,-85.0902099609375,195.30078125,61.598388671875,1,18.1734619140625,115.978759765625,-309.792724609375,2,71.2921142578125,117.671630859375,-312.343017578125,3,196.6661376953125,196.025146484375,50.78369140625,0.0,0.0,0.0,0.0,-0.0011111111111111111,-0.2788888888888889,0.0011111111111111111,-0.18,1.85,9.59,11.672291584
1671151702.6034827,0,-85.03668212890625,195.2392578125,61.61181640625,1,18.1385498046875,115.95068359375,-309.783935546875,2,71.32177734375,117.656005859375,-312.281494140625,3,196.6680908203125,196.013916015625,50.779541015625,0.0,0.0,0.0,0.0,-0.0011111111111111111,-0.2788888888888889,0.0011111111111111111,-0.18,1.85,9.59,11.672291584
1671151702.613503,0,-85.08758544921875,195.27197265625,61.579833984375,1,18.1981201171875,115.943359375,-309.791015625,2,71.3392333984375,117.69140625,-312.28076171875,3,196.66357421875,196.0322265625,50.786865234375,0.0,0.0,0.0,0.0,-0.0011111111111111111,-0.2788888888888889,0.0011111111111111111,-0.18,1.85,9.59,11.672291584
1671151702.6235006,0,-85.0947265625,195.251220703125,61.62353515625,1,18.20849609375,115.991455078125,-309.797119140625,2,71.3116455078125,117.6533203125,-312.2685546875,3,196.6351318359375,195.95849609375,50.797607421875,0.0,0.0,0.0,0.0,-0.0011111111111111111,-0.2788888888888889,0.0011111111111111111,-0.18,1.85,9.59,11.672291584
1671151702.633525,0,-85.05743408203125,195.277099609375,61.636962890625,1,18.1875,115.941650390625,-309.775146484375,2,71.3338623046875,117.67529296875,-312.28515625,3,196.643310546875,195.985595703125,50.766357421875,0.0,0.0,0.0,0.0,-0.0011111111111111111,-0.2788888888888889,0.0011111111111111111,-0.18,1.85,9.59,11.672291584
1671151702.643495,0,-85.04193115234375,195.266357421875,61.63037109375,1,18.220703125,115.9765625,-309.825927734375,2,71.3275146484375,117.65966796875,-312.279541015625,3,196.674072265625,196.028076171875,50.777587890625,0.0,0.0,0.0,0.0,-0.0011111111111111111,-0.0,0.0033333333333333335,-0.2,1.85,9.62,11.695346336
1671151702.6534941,0,-85.08612060546875,195.258056640625,61.593017578125,1,18.14208984375,115.978271484375,-309.789306640625,2,71.3326416015625,117.637939453125,-312.25830078125,3,196.6578369140625,196.0205078125,50.783203125,0.0,0.0,0.0,0.0,-0.0011111111111111111,-0.0,0.0033333333333333335,-0.2,1.85,9.62,11.695346336
1671151702.6634562,0,-85.1170654296875,195.294677734375,61.57177734375,1,18.153564453125,115.969482421875,-309.792236328125,2,71.2984619140625,117.6826171875,-312.306884765625,3,196.6512451171875,196.05224609375,50.782470703125,0.0,0.0,0.0,0.0,-0.0011111111111111111,-0.0,0.0033333333333333335,-0.2,1.85,9.62,11.695346336
1671151702.6735082,0,-85.08258056640625,195.28955078125,61.626220703125,1,18.2650146484375,115.90234375,-309.82421875,2,71.3253173828125,117.66748046875,-312.275146484375,3,196.63427734375,195.99267578125,50.76220703125,0.0,0.0,0.0,0.0,0.0,-0.0022222222222222222,-0.0,-0.18,1.86,9.61,11.698639872000001
1671151702.683531,0,-85.11328125,195.338134765625,61.611328125,1,18.1285400390625,115.953369140625,-309.76953125,2,71.32275390625,117.6455078125,-312.275634765625,3,196.636962890625,195.991455078125,50.771240234375,0.0,0.0,0.0,0.0,0.0,-0.0022222222222222222,-0.0,-0.18,1.86,9.61,11.698639872000001
1671151702.6934812,0,-85.07366943359375,195.273193359375,61.598876953125,1,18.2164306640625,115.993896484375,-309.796142578125,2,71.3148193359375,117.67138671875,-312.30517578125,3,196.641357421875,196.01708984375,50.770751953125,0.0,0.0,0.0,0.0,0.0,-0.0022222222222222222,-0.0,-0.18,1.86,9.61,11.698639872000001
1671151702.7034929,0,-85.05364990234375,195.252685546875,61.570068359375,1,18.1658935546875,115.9345703125,-309.79931640625,2,71.3145751953125,117.653564453125,-312.2587890625,3,196.684326171875,195.999755859375,50.790283203125,0.0,0.0,0.0,0.0,0.0,-0.0022222222222222222,-0.0,-0.18,1.86,9.61,11.698639872000001
1671151702.713515,0,-85.04876708984375,195.229248046875,61.609130859375,1,18.1678466796875,115.965087890625,-309.790283203125,2,71.2762451171875,117.694580078125,-312.3291015625,3,196.653564453125,196.009033203125,50.775634765625,0.0,0.0,0.0,0.0,0.0,-0.0022222222222222222,-0.0,-0.18,1.86,9.61,11.698639872000001
1671151702.72351,0,-85.030029296875,195.297607421875,61.643798828125,1,18.210205078125,115.969970703125,-309.7919921875,2,71.311767578125,117.6611328125,-312.28662109375,3,196.6619873046875,195.986083984375,50.754638671875,0.0,0.0,0.6,-0.6,-0.0022222222222222222,-0.0,-0.0,-0.18,1.85,9.63,11.6920528
1671151702.7335188,0,-85.05853271484375,195.245361328125,61.612548828125,1,18.194580078125,115.939453125,-309.789794921875,2,71.2965087890625,117.645751953125,-312.260986328125,3,196.6617431640625,195.995849609375,50.770263671875,0.0,0.0,0.6,-0.6,-0.0022222222222222222,-0.0,-0.0,-0.18,1.85,9.63,11.6920528
1671151702.7434936,0,-85.02288818359375,195.24609375,61.5927734375,1,18.2239990234375,115.97119140625,-309.814208984375,2,71.2908935546875,117.69677734375,-312.310302734375,3,196.674072265625,196.03125,50.770751953125,0.0,0.0,0.6,-0.6,-0.0022222222222222222,-0.0,-0.0,-0.18,1.85,9.63,11.6920528
1671151702.753494,0,-85.04742431640625,195.275146484375,61.624267578125,1,18.176025390625,115.966064453125,-309.772216796875,2,71.34326171875,117.666259765625,-312.24853515625,3,196.6507568359375,196.026611328125,50.764404296875,0.0,0.0,0.6,-0.6,-0.0022222222222222222,-0.0,-0.0,-0.18,1.85,9.63,11.6920528
1671151702.7634869,0,-85.0416259765625,195.218505859375,61.626708984375,1,18.14990234375,115.99755859375,-309.750732421875,2,71.28955078125,117.678466796875,-312.29052734375,3,196.6671142578125,196.0185546875,50.784423828125,0.0,0.0,0.6,-0.6,-0.0022222222222222222,-0.0,-0.0,-0.18,1.85,9.63,11.6920528
1671151702.7735064,0,-84.9940185546875,195.265625,61.61181640625,1,18.24267578125,115.954833984375,-309.829833984375,2,71.3092041015625,117.674560546875,-312.26171875,3,196.65625,195.99560546875,50.78125,0.0,0.0,0.6,-0.6,-0.0022222222222222222,-0.0,-0.0,-0.18,1.85,9.63,11.6920528
1671151702.78352,0,-85.04388427734375,195.277099609375,61.607421875,1,18.1551513671875,115.9560546875,-309.7939453125,2,71.3067626953125,117.6533203125,-312.273193359375,3,196.6552734375,195.979248046875,50.777099609375,0.0,0.0,17.1,-17.1,0.0011111111111111111,-0.0044444444444444444,0.0011111111111111111,-0.19,1.86,9.62,11.701933408
1671151702.793488,0,-85.07257080078125,195.240478515625,61.691650390625,1,18.1708984375,115.938232421875,-309.831298828125,2,71.2252197265625,117.66748046875,-312.335693359375,3,196.669677734375,195.966064453125,50.79541015625,0.0,0.0,17.1,-17.1,0.0011111111111111111,-0.0044444444444444444,0.0011111111111111111,-0.19,1.86,9.62,11.701933408
1671151702.803493,0,-85.05096435546875,195.234619140625,61.73974609375,1,17.93603515625,115.901123046875,-309.8974609375,2,71.0152587890625,117.67041015625,-312.407470703125,3,196.721435546875,195.939208984375,50.7353515625,0.0,0.0,17.1,-17.1,0.0011111111111111111,-0.0044444444444444444,0.0011111111111111111,-0.19,1.86,9.62,11.701933408
1671151702.8134887,0,-84.946533203125,195.221435546875,61.814453125,1,17.3349609375,115.917724609375,-309.96533203125,2,70.5528564453125,117.706298828125,-312.57666015625,3,196.764892578125,195.932861328125,50.357666015625,0.0,0.0,17.1,-17.1,0.0011111111111111111,-0.0044444444444444444,0.0011111111111111111,-0.19,1.86,9.62,11.701933408
1671151702.823497,0,-84.84716796875,195.289794921875,61.9013671875,1,16.5045166015625,115.991455078125,-309.940673828125,2,69.73095703125,117.6884765625,-312.74267578125,3,196.8380126953125,196.027587890625,49.663818359375,0.0,0.0,17.1,-17.1,0.0011111111111111111,-0.0044444444444444444,0.0011111111111111111,-0.19,1.86,9.62,11.701933408
1671151702.8335166,0,-84.72198486328125,195.321044921875,62.291015625,1,15.0169677734375,116.00537109375,-309.910888671875,2,68.33447265625,117.699462890625,-312.947021484375,3,196.97314453125,196.040283203125,48.788818359375,0.0,0.0,17.1,-17.1,0.0011111111111111111,-0.0044444444444444444,0.0011111111111111111,-0.19,1.86,9.62,11.701933408
1671151702.8434966,0,-84.4283447265625,195.3359375,62.962890625,1,13.280517578125,116.113525390625,-309.7666015625,2,66.587890625,117.623779296875,-313.10400390625,3,197.1466064453125,196.143310546875,47.963623046875,0.001342970905351362,-0.006331148553799278,29.0,-58.4,-0.0022222222222222222,0.0077777777777777776,0.2822222222222222,-3.42,1.86,9.86,11.645943296
1671151702.8535001,0,-84.09161376953125,195.2880859375,63.69775390625,1,11.4515380859375,116.17333984375,-309.55859375,2,64.8388671875,117.609375,-313.154296875,3,197.4075927734375,196.1171875,47.227783203125,0.001342970905351362,-0.006331148553799278,29.0,-58.4,-0.0022222222222222222,0.0077777777777777776,0.2822222222222222,-3.42,1.86,9.86,11.645943296
1671151702.863508,0,-83.62890625,195.2001953125,64.9072265625,1,9.0654296875,116.12939453125,-309.185791015625,2,62.5076904296875,117.62255859375,-313.146484375,3,197.5855712890625,196.067626953125,46.34423828125,0.001342970905351362,-0.006331148553799278,29.0,-58.4,-0.0022222222222222222,0.0077777777777777776,0.2822222222222222,-3.42,1.86,9.86,11.645943296
1671151702.8735054,0,-83.16204833984375,195.134033203125,66.184326171875,1,6.3221435546875,116.077880859375,-308.8505859375,2,59.7352294921875,117.580322265625,-313.28515625,3,197.914794921875,196.00146484375,45.19921875,0.001342970905351362,-0.006331148553799278,29.0,-58.4,-0.0022222222222222222,0.0077777777777777776,0.2822222222222222,-3.42,1.86,9.86,11.645943296
1671151702.8835433,0,-82.39215087890625,195.1220703125,67.720703125,1,2.6004638671875,116.255859375,-308.5048828125,2,55.812255859375,117.55517578125,-313.439453125,3,198.3372802734375,195.943359375,43.2900390625,0.04935418077166255,-0.04921029103180348,25.8,-64.2,0.0011111111111111111,-0.07666666666666666,0.5133333333333333,0.34,2.36,9.73,11.586659648000001
1671151702.8934937,0,-81.634521484375,195.183837890625,69.10888671875,1,-1.72509765625,116.8955078125,-308.23681640625,2,51.2205810546875,118.304931640625,-314.076904296875,3,198.6343994140625,196.021484375,40.779541015625,0.04935418077166255,-0.04921029103180348,25.8,-64.2,0.0011111111111111111,-0.07666666666666666,0.5133333333333333,0.34,2.36,9.73,11.586659648000001
1671151702.9034927,0,-80.82989501953125,195.141845703125,70.3955078125,1,-6.3079833984375,116.352294921875,-308.419921875,2,46.235595703125,118.4970703125,-314.605712890625,3,198.5887451171875,196.162353515625,38.034423828125,0.04935418077166255,-0.04921029103180348,25.8,-64.2,0.0011111111111111111,-0.07666666666666666,0.5133333333333333,0.34,2.36,9.73,11.586659648000001
1671151702.9134915,0,-80.04522705078125,195.1435546875,71.628173828125,1,-11.699462890625,115.822021484375,-307.79150390625,2,40.5283203125,117.754150390625,-314.961669921875,3,198.7322998046875,196.447265625,34.5654296875,0.04935418077166255,-0.04921029103180348,25.8,-64.2,0.0011111111111111111,-0.07666666666666666,0.5133333333333333,0.34,2.36,9.73,11.586659648000001
1671151702.923496,0,-79.12689208984375,195.035888671875,72.777587890625,1,-16.87152099609375,115.924072265625,-307.503662109375,2,35.05029296875,118.1171875,-315.866943359375,3,198.9837646484375,196.269287109375,31.024169921875,0.11290548254275379,-0.16940618706075036,33.3,-56.7,-0.016666666666666666,0.14222222222222222,1.4011111111111112,-6.11,2.1,9.22,11.619595008000001
1671151702.9335368,0,-78.27496337890625,195.166748046875,73.625,1,-21.62091064453125,115.911376953125,-307.2958984375,2,29.9326171875,118.44189453125,-316.607666015625,3,199.1849365234375,196.240966796875,27.637939453125,0.11290548254275379,-0.16940618706075036,33.3,-56.7,-0.016666666666666666,0.14222222222222222,1.4011111111111112,-6.11,2.1,9.22,11.619595008000001
1671151702.9434555,0,-77.5234375,195.136962890625,74.36669921875,1,-26.9228515625,115.75048828125,-307.18603515625,2,24.52392578125,118.06640625,-317.32568359375,3,199.529052734375,196.15625,23.686767578125,0.11290548254275379,-0.16940618706075036,33.3,-56.7,-0.016666666666666666,0.14222222222222222,1.4011111111111112,-6.11,2.1,9.22,11.619595008000001
1671151702.953476,0,-76.7706298828125,195.15380859375,75.130615234375,1,-31.681640625,116.117919921875,-307.33056640625,2,20.046630859375,117.962158203125,-318.140869140625,3,199.7646484375,196.26904296875,20.248291015625,0.11290548254275379,-0.16940618706075036,33.3,-56.7,-0.016666666666666666,0.14222222222222222,1.4011111111111112,-6.11,2.1,9.22,11.619595008000001
1671151702.9634883,0,-75.7982177734375,195.10107421875,75.95751953125,1,-36.84869384765625,116.189453125,-307.261474609375,2,14.94580078125,117.430419921875,-318.48828125,3,200.0157470703125,196.237060546875,16.627685546875,0.11290548254275379,-0.16940618706075036,33.3,-56.7,-0.016666666666666666,0.14222222222222222,1.4011111111111112,-6.11,2.1,9.22,11.619595008000001
1671151702.9735007,0,-75.08038330078125,195.11279296875,76.75732421875,1,-41.4144287109375,115.92236328125,-306.717529296875,2,10.1265869140625,117.03271484375,-318.808837890625,3,199.7569580078125,195.90087890625,13.579345703125,0.11290548254275379,-0.16940618706075036,33.3,-56.7,-0.016666666666666666,0.14222222222222222,1.4011111111111112,-6.11,2.1,9.22,11.619595008000001
1671151702.9835482,0,-74.3616943359375,194.942138671875,77.70849609375,1,-46.71588134765625,115.841796875,-306.165771484375,2,5.1331787109375,116.952392578125,-319.16748046875,3,199.645751953125,195.827392578125,10.1396484375,0.21228532953875456,-0.40533739718301287,40.0,-50.0,-0.03888888888888889,-0.21777777777777776,1.6855555555555555,1.01,1.63,12.24,11.662410976
1671151702.9934945,0,-73.495361328125,194.9580078125,78.51611328125,1,-52.04296875,115.802490234375,-305.57861328125,2,-0.2039794921875,117.152099609375,-319.845458984375,3,199.5030517578125,196.091064453125,6.44384765625,0.21228532953875456,-0.40533739718301287,40.0,-50.0,-0.03888888888888889,-0.21777777777777776,1.6855555555555555,1.01,1.63,12.24,11.662410976
1671151703.0034928,0,-72.38104248046875,195.10595703125,79.349609375,1,-56.70465087890625,115.697998046875,-304.76318359375,2,-5.1109619140625,117.2529296875,-319.768310546875,3,199.4671630859375,196.513916015625,3.129150390625,0.21228532953875456,-0.40533739718301287,40.0,-50.0,-0.03888888888888889,-0.21777777777777776,1.6855555555555555,1.01,1.63,12.24,11.662410976
1671151703.0135045,0,-71.15399169921875,195.17333984375,80.639892578125,1,-62.13812255859375,115.767822265625,-303.692626953125,2,-10.781982421875,117.0693359375,-319.276611328125,3,199.256103515625,196.39306640625,-0.22509765625,0.21228532953875456,-0.40533739718301287,40.0,-50.0,-0.03888888888888889,-0.21777777777777776,1.6855555555555555,1.01,1.63,12.24,11.662410976
1671151703.0235028,0,-69.946533203125,195.173828125,82.055419921875,1,-66.78900146484375,115.740966796875,-302.285400390625,2,-15.96466064453125,116.7890625,-318.579833984375,3,199.1431884765625,196.314697265625,-2.984619140625,0.3321934460879833,-0.599492619499524,40.8,-49.2,-0.04,0.022222222222222223,1.5833333333333333,1.09,2.13,7.79,11.645943296
1671151703.0335422,0,-68.736572265625,195.160400390625,83.73974609375,1,-72.00482177734375,115.923095703125,-300.6123046875,2,-21.45068359375,117.010498046875,-317.728271484375,3,198.9202880859375,196.249267578125,-5.89599609375,0.3321934460879833,-0.599492619499524,40.8,-49.2,-0.04,0.022222222222222223,1.5833333333333333,1.09,2.13,7.79,11.645943296
1671151703.0434942,0,-67.481201171875,194.7822265625,85.6201171875,1,-77.17529296875,115.793701171875,-298.771484375,2,-26.83721923828125,116.89990234375,-316.770263671875,3,198.635009765625,195.935546875,-8.522216796875,0.3321934460879833,-0.599492619499524,40.8,-49.2,-0.04,0.022222222222222223,1.5833333333333333,1.09,2.13,7.79,11.645943296
1671151703.0534923,0,-66.33258056640625,194.69189453125,87.214599609375,1,-81.68011474609375,115.6943359375,-297.043212890625,2,-31.44097900390625,116.712158203125,-315.82763671875,3,198.55078125,195.8564453125,-10.87451171875,0.3321934460879833,-0.599492619499524,40.8,-49.2,-0.04,0.022222222222222223,1.5833333333333333,1.09,2.13,7.79,11.645943296
1671151703.0635054,0,-64.9188232421875,194.796630859375,88.752685546875,1,-86.5640869140625,115.6484375,-295.093994140625,2,-36.939208984375,116.783935546875,-314.711669921875,3,198.3001708984375,195.77734375,-13.545654296875,0.4689846254473435,-0.8085644115147593,40.8,-49.2,-0.043333333333333335,0.022222222222222223,1.7322222222222223,1.73,0.73,12.32,11.652530368
1671151703.0735238,0,-63.5194091796875,195.00439453125,90.2119140625,1,-90.7979736328125,115.8076171875,-293.23583984375,2,-41.53839111328125,116.872314453125,-313.549560546875,3,198.101806640625,195.8779296875,-16.179443359375,0.4689846254473435,-0.8085644115147593,40.8,-49.2,-0.043333333333333335,0.022222222222222223,1.7322222222222223,1.73,0.73,12.32,11.652530368
1671151703.0834951,0,-61.98394775390625,195.100830078125,91.66064453125,1,-95.49432373046875,115.90625,-291.291015625,2,-46.501220703125,117.11083984375,-312.32958984375,3,197.9117431640625,195.912109375,-19.142822265625,0.4689846254473435,-0.8085644115147593,40.8,-49.2,-0.043333333333333335,0.022222222222222223,1.7322222222222223,1.73,0.73,12.32,11.652530368
1671151703.0934763,0,-60.577880859375,195.0068359375,93.264404296875,1,-100.27728271484375,115.720947265625,-288.8095703125,2,-51.69866943359375,116.843505859375,-310.80029296875,3,197.608642578125,195.94677734375,-22.041015625,0.4689846254473435,-0.8085644115147593,40.8,-49.2,-0.043333333333333335,0.022222222222222223,1.7322222222222223,1.73,0.73,12.32,11.652530368
1671151703.1034863,0,-59.40966796875,194.869873046875,94.82080078125,1,-104.68084716796875,115.638671875,-286.802490234375,2,-56.55908203125,117.06591796875,-309.572998046875,3,197.1468505859375,196.095703125,-24.5068359375,0.4689846254473435,-0.8085644115147593,40.8,-49.2,-0.043333333333333335,0.022222222222222223,1.7322222222222223,1.73,0.73,12.32,11.652530368
1671151703.1135006,0,-57.9476318359375,194.6591796875,96.586669921875,1,-109.58013916015625,115.62158203125,-284.220947265625,2,-61.56146240234375,116.978515625,-307.841552734375,3,196.4937744140625,196.198974609375,-27.081787109375,0.4689846254473435,-0.8085644115147593,40.8,-49.2,-0.043333333333333335,0.022222222222222223,1.7322222222222223,1.73,0.73,12.32,11.652530368
1671151703.1235697,0,-56.5509033203125,194.723876953125,98.08837890625,1,-114.318115234375,115.7099609375,-281.717529296875,2,-66.783447265625,117.1025390625,-306.274658203125,3,195.8551025390625,196.348876953125,-29.632080078125,0.6205005215189489,-1.0073241055067608,40.8,-49.2,-0.05444444444444444,0.03777777777777778,1.6344444444444444,-0.06,1.28,10.02,11.668998048
1671151703.1335368,0,-54.95989990234375,195.015869140625,99.408203125,1,-118.19635009765625,115.384033203125,-278.97705078125,2,-71.01837158203125,116.665771484375,-304.172119140625,3,195.31591796875,196.403076171875,-31.981689453125,0.6205005215189489,-1.0073241055067608,40.8,-49.2,-0.05444444444444444,0.03777777777777778,1.6344444444444444,-0.06,1.28,10.02,11.668998048
1671151703.1434927,0,-53.19207763671875,195.210205078125,100.9765625,1,-122.695068359375,115.037353515625,-276.138671875,2,-75.86224365234375,116.177001953125,-302.029296875,3,194.7060546875,196.5712890625,-34.690185546875,0.6205005215189489,-1.0073241055067608,40.8,-49.2,-0.05444444444444444,0.03777777777777778,1.6344444444444444,-0.06,1.28,10.02,11.668998048
1671151703.1534941,0,-51.6015625,195.220947265625,102.247802734375,1,-126.90606689453125,114.8935546875,-273.810302734375,2,-80.56829833984375,115.839111328125,-300.41552734375,3,194.3026123046875,196.53564453125,-37.2265625,0.6205005215189489,-1.0073241055067608,40.8,-49.2,-0.05444444444444444,0.03777777777777778,1.6344444444444444,-0.06,1.28,10.02,11.668998048
1671151703.1634874,0,-49.929443359375,195.244873046875,103.76318359375,1,-131.964599609375,115.1083984375,-271.51220703125,2,-85.49981689453125,116.0595703125,-298.634521484375,3,193.7720947265625,196.397705078125,-40.056640625,0.6205005215189489,-1.0073241055067608,40.8,-49.2,-0.05444444444444444,0.03777777777777778,1.6344444444444444,-0.06,1.28,10.02,11.668998048
1671151703.1735055,0,-48.45068359375,195.25390625,105.085693359375,1,-135.99310302734375,114.968017578125,-268.66259765625,2,-90.08282470703125,115.818603515625,-296.711669921875,3,193.095458984375,196.449951171875,-42.404296875,0.6205005215189489,-1.0073241055067608,40.8,-49.2,-0.05444444444444444,0.03777777777777778,1.6344444444444444,-0.06,1.28,10.02,11.668998048
1671151703.183471,0,-46.51556396484375,195.234375,106.511962890625,1,-140.30828857421875,114.8515625,-265.733642578125,2,-94.8529052734375,115.483154296875,-294.500732421875,3,192.2894287109375,196.50634765625,-45.093017578125,0.7741747636884405,-1.2040213798941157,41.5,-48.5,-0.058888888888888886,-0.2811111111111111,1.6966666666666668,1.71,1.96,9.07,11.652530368
1671151703.1934752,0,-44.87261962890625,195.430908203125,107.7998046875,1,-144.4588623046875,115.18994140625,-262.751708984375,2,-99.97320556640625,115.5771484375,-292.0771484375,3,191.4005126953125,196.575927734375,-47.70068359375,0.7741747636884405,-1.2040213798941157,41.5,-48.5,-0.058888888888888886,-0.2811111111111111,1.6966666666666668,1.71,1.96,9.07,11.652530368
1671151703.2034886,0,-43.21514892578125,195.5146484375,108.953857421875,1,-148.55841064453125,115.2294921875,-260.134033203125,2,-104.571044921875,115.62646484375,-289.97998046875,3,190.529296875,196.6884765625,-49.9697265625,0.7741747636884405,-1.2040213798941157,41.5,-48.5,-0.058888888888888886,-0.2811111111111111,1.6966666666666668,1.71,1.96,9.07,11.652530368
1671151703.2134888,0,-41.4774169921875,195.63818359375,110.032958984375,1,-152.64990234375,115.2431640625,-256.5947265625,2,-109.477783203125,115.846923828125,-287.62060546875,3,189.5352783203125,196.772705078125,-52.672119140625,0.7741747636884405,-1.2040213798941157,41.5,-48.5,-0.058888888888888886,-0.2811111111111111,1.6966666666666668,1.71,1.96,9.07,11.652530368
1671151703.2234817,0,-39.91522216796875,195.51806640625,111.244384765625,1,-157.521728515625,115.12451171875,-253.564208984375,2,-114.89453125,116.03125,-285.70166015625,3,188.3944091796875,196.91796875,-55.35888671875,0.934995529604266,-1.3864256067888023,41.5,-48.5,-0.011111111111111112,-0.07666666666666666,1.7033333333333334,-0.98,1.83,10.73,11.659117440000001
1671151703.2335432,0,-38.53192138671875,195.631103515625,112.42724609375,1,-161.51434326171875,115.081298828125,-250.744384765625,2,-119.16064453125,116.027587890625,-283.554443359375,3,187.4334716796875,197.119384765625,-57.738037109375,0.934995529604266,-1.3864256067888023,41.5,-48.5,-0.011111111111111112,-0.07666666666666666,1.7033333333333334,-0.98,1.83,10.73,11.659117440000001
1671151703.2434852,0,-36.71435546875,195.505859375,113.71875,1,-166.16339111328125,114.9306640625,-247.631103515625,2,-124.08746337890625,116.1015625,-280.99072265625,3,186.3543701171875,197.07421875,-60.23876953125,0.934995529604266,-1.3864256067888023,41.5,-48.5,-0.011111111111111112,-0.07666666666666666,1.7033333333333334,-0.98,1.83,10.73,11.659117440000001
1671151703.2534752,0,-35.07257080078125,195.4384765625,114.830322265625,1,-169.94488525390625,114.649169921875,-244.37744140625,2,-128.2698974609375,116.00439453125,-278.427490234375,3,185.53759765625,197.07666015625,-62.474853515625,0.934995529604266,-1.3864256067888023,41.5,-48.5,-0.011111111111111112,-0.07666666666666666,1.7033333333333334,-0.98,1.83,10.73,11.659117440000001
1671151703.2634876,0,-33.291259765625,195.3349609375,116.142822265625,1,-174.19378662109375,115.194091796875,-240.728271484375,2,-132.9136962890625,116.35986328125,-275.706298828125,3,184.546875,196.80126953125,-64.940185546875,0.934995529604266,-1.3864256067888023,41.5,-48.5,-0.011111111111111112,-0.07666666666666666,1.7033333333333334,-0.98,1.83,10.73,11.659117440000001
1671151703.2734802,0,-31.6854248046875,195.5,117.150390625,1,-178.64404296875,115.611083984375,-237.45361328125,2,-136.688720703125,116.4287109375,-273.0634765625,3,183.3443603515625,196.657470703125,-67.333984375,1.0882860658008002,-1.5675348260247577,41.5,-48.5,0.0044444444444444444,-0.15666666666666668,1.6877777777777778,-1.2,1.99,9.23,11.626182080000001
1671151703.283547,0,-30.0594482421875,195.638427734375,118.255859375,1,-182.99212646484375,115.648193359375,-233.791259765625,2,-141.16552734375,116.52978515625,-270.054443359375,3,182.131591796875,196.45849609375,-69.555419921875,1.0882860658008002,-1.5675348260247577,41.5,-48.5,0.0044444444444444444,-0.15666666666666668,1.6877777777777778,-1.2,1.99,9.23,11.626182080000001
1671151703.293455,0,-28.4261474609375,195.82568359375,119.2724609375,1,-187.03936767578125,115.8525390625,-230.30712890625,2,-145.9130859375,116.370849609375,-266.954833984375,3,181.050048828125,196.408935546875,-72.00390625,1.0882860658008002,-1.5675348260247577,41.5,-48.5,0.0044444444444444444,-0.15666666666666668,1.6877777777777778,-1.2,1.99,9.23,11.626182080000001
1671151703.3034828,0,-27.01885986328125,195.67138671875,120.010009765625,1,-190.6004638671875,115.723876953125,-227.34814453125,2,-150.1624755859375,116.19091796875,-264.005615234375,3,179.7713623046875,196.49560546875,-74.410888671875,1.0882860658008002,-1.5675348260247577,41.5,-48.5,0.0044444444444444444,-0.15666666666666668,1.6877777777777778,-1.2,1.99,9.23,11.626182080000001
1671151703.3134806,0,-24.63763427734375,195.71533203125,120.98779296875,1,-193.7838134765625,115.60400390625,-223.490478515625,2,-154.58721923828125,116.024169921875,-260.806396484375,3,178.5440673828125,196.40478515625,-76.790771484375,1.0882860658008002,-1.5675348260247577,41.5,-48.5,0.0044444444444444444,-0.15666666666666668,1.6877777777777778,-1.2,1.99,9.23,11.626182080000001
1671151703.3234544,0,-22.37835693359375,195.78173828125,121.912841796875,1,-196.78924560546875,115.38134765625,-219.78955078125,2,-158.60205078125,115.657958984375,-257.545166015625,3,177.482177734375,196.312744140625,-78.797119140625,1.2581718853277473,-1.7839449947728054,41.5,-48.5,-0.06222222222222222,-0.015555555555555555,1.6977777777777778,1.08,1.71,8.86,11.675585120000001
1671151703.3335495,0,-20.1575927734375,195.601318359375,123.01220703125,1,-200.02813720703125,115.0615234375,-215.569091796875,2,-162.8326416015625,115.634033203125,-254.025146484375,3,176.2674560546875,196.439453125,-80.97900390625,1.2581718853277473,-1.7839449947728054,41.5,-48.5,-0.06222222222222222,-0.015555555555555555,1.6977777777777778,1.08,1.71,8.86,11.675585120000001
1671151703.343452,0,-18.4566650390625,195.7099609375,124.18359375,1,-203.31689453125,114.8505859375,-211.400634765625,2,-167.427490234375,116.080322265625,-250.52294921875,3,174.89111328125,196.638671875,-83.3525390625,1.2581718853277473,-1.7839449947728054,41.5,-48.5,-0.06222222222222222,-0.015555555555555555,1.6977777777777778,1.08,1.71,8.86,11.675585120000001
1671151703.353494,0,-16.60247802734375,195.952880859375,124.9814453125,1,-206.21124267578125,114.8828125,-207.55029296875,2,-171.26055908203125,116.3720703125,-247.1044921875,3,173.4835205078125,196.599853515625,-85.302978515625,1.2581718853277473,-1.7839449947728054,41.5,-48.5,-0.06222222222222222,-0.015555555555555555,1.6977777777777778,1.08,1.71,8.86,11.675585120000001
1671151703.3635018,0,-14.64056396484375,195.983154296875,125.88427734375,1,-209.3807373046875,115.386962890625,-203.48876953125,2,-175.0062255859375,116.20166015625,-243.083740234375,3,172.0433349609375,196.79638671875,-87.766845703125,1.2581718853277473,-1.7839449947728054,41.5,-48.5,-0.06222222222222222,-0.015555555555555555,1.6977777777777778,1.08,1.71,8.86,11.675585120000001
1671151703.3735137,0,-12.5802001953125,196.118896484375,126.656982421875,1,-212.586181640625,115.49365234375,-199.860595703125,2,-179.20025634765625,116.735595703125,-240.166259765625,3,170.882080078125,196.658447265625,-89.887939453125,1.408248884000762,-1.93872239161455,41.5,-48.5,-0.014444444444444444,0.0077777777777777776,1.69,1.28,1.71,7.38,11.659117440000001
1671151703.3835564,0,-10.27252197265625,195.9443359375,127.466796875,1,-216.3155517578125,115.399169921875,-195.77490234375,2,-183.4376220703125,116.34130859375,-236.638427734375,3,169.109619140625,196.747314453125,-92.180908203125,1.408248884000762,-1.93872239161455,41.5,-48.5,-0.014444444444444444,0.0077777777777777776,1.69,1.28,1.71,7.38,11.659117440000001
1671151703.3934526,0,-7.7991943359375,195.883544921875,128.239501953125,1,-219.67657470703125,114.879150390625,-191.2119140625,2,-187.28143310546875,115.80712890625,-233.01611328125,3,167.5372314453125,196.787109375,-94.362060546875,1.408248884000762,-1.93872239161455,41.5,-48.5,-0.014444444444444444,0.0077777777777777776,1.69,1.28,1.71,7.38,11.659117440000001
1671151703.4034941,0,-5.78857421875,195.857421875,128.850830078125,1,-222.45928955078125,114.762451171875,-186.98486328125,2,-190.0419921875,116.031494140625,-229.70263671875,3,165.9334716796875,196.7734375,-96.31591796875,1.408248884000762,-1.93872239161455,41.5,-48.5,-0.014444444444444444,0.0077777777777777776,1.69,1.28,1.71,7.38,11.659117440000001
1671151703.4134858,0,-3.55029296875,195.907470703125,129.46240234375,1,-225.5369873046875,114.772705078125,-182.50244140625,2,-193.18292236328125,115.11474609375,-225.0634765625,3,164.4471435546875,196.822509765625,-98.5244140625,1.408248884000762,-1.93872239161455,41.5,-48.5,-0.014444444444444444,0.0077777777777777776,1.69,1.28,1.71,7.38,11.659117440000001
1671151703.4234865,0,-1.4573974609375,195.744873046875,130.17333984375,1,-228.33416748046875,115.158935546875,-178.5908203125,2,-196.95562744140625,115.9833984375,-222.207763671875,3,163.00439453125,196.758544921875,-100.468017578125,1.408248884000762,-1.93872239161455,41.5,-48.5,-0.014444444444444444,0.0077777777777777776,1.69,1.28,1.71,7.38,11.659117440000001
1671151703.4335606,0,0.4288330078125,195.587890625,130.944580078125,1,-231.42535400390625,115.237060546875,-174.156982421875,2,-200.8564453125,116.12646484375,-218.40234375,3,161.276123046875,196.84521484375,-102.625,1.408248884000762,-1.93872239161455,41.5,-48.5,-0.014444444444444444,0.0077777777777777776,1.69,1.28,1.71,7.38,11.659117440000001
1671151703.443452,0,2.65380859375,195.58349609375,131.665771484375,1,-234.3658447265625,115.009521484375,-169.4892578125,2,-204.55157470703125,116.071044921875,-214.372802734375,3,159.5257568359375,196.6669921875,-104.518798828125,1.408248884000762,-1.93872239161455,41.5,-48.5,-0.014444444444444444,0.0077777777777777776,1.69,1.28,1.71,7.38,11.659117440000001
1671151703.4535077,0,4.61474609375,195.4599609375,132.14453125,1,-236.8773193359375,114.824462890625,-165.3525390625,2,-207.8106689453125,115.983642578125,-210.683837890625,3,157.7703857421875,196.640869140625,-106.34375,1.569932988355742,-2.1230451483740245,41.5,-48.5,-0.03,0.027777777777777776,1.99,-0.78,2.0,8.12,11.665704512
1671151703.4634933,0,6.802001953125,195.5634765625,132.759765625,1,-239.669921875,114.86279296875,-160.570068359375,2,-211.0225830078125,116.471435546875,-206.59033203125,3,156.0123291015625,196.619873046875,-108.31689453125,1.569932988355742,-2.1230451483740245,41.5,-48.5,-0.03,0.027777777777777776,1.99,-0.78,2.0,8.12,11.665704512
1671151703.473503,0,8.8936767578125,195.855224609375,133.151123046875,1,-241.97210693359375,114.98876953125,-156.4541015625,2,-213.9373779296875,116.72216796875,-202.9853515625,3,154.503662109375,196.85205078125,-110.341796875,1.569932988355742,-2.1230451483740245,41.5,-48.5,-0.03,0.027777777777777776,1.99,-0.78,2.0,8.12,11.665704512
1671151703.4835556,0,11.1263427734375,195.9833984375,133.60107421875,1,-244.7315673828125,114.70849609375,-151.6376953125,2,-217.48504638671875,116.319580078125,-198.511474609375,3,152.7137451171875,197.082763671875,-112.337158203125,1.569932988355742,-2.1230451483740245,41.5,-48.5,-0.03,0.027777777777777776,1.99,-0.78,2.0,8.12,11.665704512
1671151703.4934528,0,13.4688720703125,196.11328125,133.98046875,1,-247.244140625,114.88037109375,-146.861083984375,2,-221.04095458984375,116.125,-194.098876953125,3,151.0499267578125,197.18359375,-114.241455078125,1.569932988355742,-2.1230451483740245,41.5,-48.5,-0.03,0.027777777777777776,1.99,-0.78,2.0,8.12,11.665704512
1671151703.5034993,0,15.4913330078125,196.373779296875,134.175048828125,1,-249.46649169921875,114.731201171875,-142.472900390625,2,-224.10888671875,115.72412109375,-189.9462890625,3,149.3272705078125,197.243896484375,-115.944580078125,1.74125770528128,-2.34760906904742,41.5,-48.5,-0.05444444444444444,-0.012222222222222223,1.6944444444444444,0.15,2.05,10.7,11.668998048
1671151703.5135293,0,17.8421630859375,196.494384765625,134.44482421875,1,-251.7060546875,114.65771484375,-137.63916015625,2,-227.32861328125,115.760009765625,-185.45556640625,3,147.219970703125,197.36669921875,-117.821044921875,1.74125770528128,-2.34760906904742,41.5,-48.5,-0.05444444444444444,-0.012222222222222223,1.6944444444444444,0.15,2.05,10.7,11.668998048
1671151703.5235171,0,20.0758056640625,196.359619140625,134.615966796875,1,-253.61676025390625,115.04833984375,-133.1435546875,2,-230.08062744140625,115.68505859375,-181.3544921875,3,145.4393310546875,197.207763671875,-119.528076171875,1.8871619014983816,-2.485359513339174,41.5,-48.5,-0.06555555555555556,-0.03666666666666667,1.6833333333333333,1.81,1.54,8.46,11.6920528
1671151703.5335672,0,22.231201171875,196.304931640625,134.945556640625,1,-255.9178466796875,114.718994140625,-128.340576171875,2,-233.18963623046875,115.6875,-176.75439453125,3,143.29150390625,197.038818359375,-121.534423828125,1.8871619014983816,-2.485359513339174,41.5,-48.5,-0.06555555555555556,-0.03666666666666667,1.6833333333333333,1.81,1.54,8.46,11.6920528
1671151703.5434518,0,24.2242431640625,196.116943359375,135.2236328125,1,-257.989990234375,114.681884765625,-123.560791015625,2,-236.06951904296875,115.715087890625,-172.238037109375,3,141.0657958984375,196.966064453125,-123.481201171875,1.8871619014983816,-2.485359513339174,41.5,-48.5,-0.06555555555555556,-0.03666666666666667,1.6833333333333333,1.81,1.54,8.46,11.6920528
1671151703.5534928,0,25.9595947265625,195.9560546875,135.416259765625,1,-259.91094970703125,114.98388671875,-119.18505859375,2,-238.99945068359375,115.279296875,-168.044189453125,3,138.9156494140625,196.645751953125,-124.984130859375,1.8871619014983816,-2.485359513339174,41.5,-48.5,-0.06555555555555556,-0.03666666666666667,1.6833333333333333,1.81,1.54,8.46,11.6920528
1671151703.563499,0,27.990478515625,195.946533203125,135.679931640625,1,-261.7015380859375,115.0791015625,-114.02490234375,2,-241.58209228515625,115.39599609375,-163.203369140625,3,136.582275390625,196.456787109375,-126.739501953125,1.8871619014983816,-2.485359513339174,41.5,-48.5,-0.06555555555555556,-0.03666666666666667,1.6833333333333333,1.81,1.54,8.46,11.6920528
1671151703.5735006,0,29.77587890625,195.958251953125,135.84326171875,1,-263.75238037109375,114.703857421875,-109.205322265625,2,-243.94927978515625,115.304931640625,-158.893310546875,3,134.4495849609375,196.37841796875,-128.080810546875,1.8871619014983816,-2.485359513339174,41.5,-48.5,-0.06555555555555556,-0.03666666666666667,1.6833333333333333,1.81,1.54,8.46,11.6920528
1671151703.5835626,0,31.834716796875,195.603271484375,136.038818359375,1,-265.7384033203125,114.388916015625,-103.78125,2,-246.7183837890625,115.374755859375,-154.144775390625,3,132.051025390625,196.332275390625,-129.59423828125,1.8871619014983816,-2.485359513339174,41.5,-48.5,-0.06555555555555556,-0.03666666666666667,1.6833333333333333,1.81,1.54,8.46,11.6920528
1671151703.5934525,0,34.398681640625,195.861083984375,135.94287109375,1,-267.47259521484375,114.75,-98.64111328125,2,-249.0916748046875,115.37841796875,-149.326171875,3,130.088134765625,196.378662109375,-131.108642578125,2.0488939690999817,-2.7091080588200347,42.2,-47.8,-0.052222222222222225,-0.06555555555555556,1.6966666666666668,0.25,1.64,9.53,11.659117440000001
1671151703.6034732,0,36.5284423828125,196.045166015625,135.83056640625,1,-268.67523193359375,114.960205078125,-94.1572265625,2,-251.4014892578125,115.2626953125,-144.8369140625,3,128.203369140625,196.663330078125,-132.629638671875,2.0488939690999817,-2.7091080588200347,42.2,-47.8,-0.052222222222222225,-0.06555555555555556,1.6966666666666668,0.25,1.64,9.53,11.659117440000001
1671151703.6134994,0,39.15625,196.2958984375,135.559326171875,1,-270.17645263671875,115.1298828125,-89.09228515625,2,-253.56695556640625,115.375,-140.426513671875,3,126.05908203125,196.677490234375,-134.37744140625,2.0488939690999817,-2.7091080588200347,42.2,-47.8,-0.052222222222222225,-0.06555555555555556,1.6966666666666668,0.25,1.64,9.53,11.659117440000001
1671151703.623495,0,47.1448974609375,192.386962890625,135.58447265625,1,-271.41259765625,115.220703125,-84.38671875,2,-255.176513671875,115.626708984375,-135.960205078125,3,124.0491943359375,196.744384765625,-135.802978515625,2.0488939690999817,-2.7091080588200347,42.2,-47.8,-0.052222222222222225,-0.06555555555555556,1.6966666666666668,0.25,1.64,9.53,11.659117440000001
1671151703.6335104,0,43.2548828125,196.68115234375,135.460693359375,1,-272.7454833984375,115.033203125,-79.172119140625,2,-257.6846923828125,115.843505859375,-131.181396484375,3,121.777587890625,196.745849609375,-137.25830078125,2.204486741134261,-2.850407783361646,4.4,-4.4,-0.025555555555555557,0.008888888888888889,1.7066666666666668,-0.95,1.53,9.19,11.665704512
1671151703.6434522,0,45.485107421875,196.674072265625,135.533935546875,1,-274.005126953125,114.956787109375,-73.9208984375,2,-259.8104248046875,115.7587890625,-126.024169921875,3,119.4923095703125,196.715576171875,-138.650634765625,2.204486741134261,-2.850407783361646,4.4,-4.4,-0.025555555555555557,0.008888888888888889,1.7066666666666668,-0.95,1.53,9.19,11.665704512
1671151703.6534925,0,47.4527587890625,196.80224609375,135.474609375,1,-274.959716796875,115.028564453125,-69.155517578125,2,-261.688232421875,115.986083984375,-121.514404296875,3,117.603271484375,196.918701171875,-139.826904296875,2.204486741134261,-2.850407783361646,4.4,-4.4,-0.025555555555555557,0.008888888888888889,1.7066666666666668,-0.95,1.53,9.19,11.665704512
1671151703.6634848,0,49.4234619140625,196.85693359375,135.441650390625,1,-276.0838623046875,114.82861328125,-64.714111328125,2,-263.45147705078125,115.782470703125,-117.119140625,3,115.984375,196.97900390625,-140.622802734375,2.204486741134261,-2.850407783361646,4.4,-4.4,-0.025555555555555557,0.008888888888888889,1.7066666666666668,-0.95,1.53,9.19,11.665704512
1671151703.673503,0,50.546630859375,197.011962890625,135.522216796875,1,-277.0126953125,115.03125,-61.63671875,2,-264.76800537109375,115.949951171875,-114.226806640625,3,114.5625,197.023681640625,-141.107421875,2.368473081326986,-3.035881658039993,-0.0,0.0,-0.03777777777777778,-0.023333333333333334,1.6833333333333333,2.79,1.64,8.05,11.705226944
1671151703.683557,0,51.034912109375,197.10400390625,135.549072265625,1,-277.9500732421875,114.9970703125,-59.364501953125,2,-265.81561279296875,116.072509765625,-111.929931640625,3,113.2120361328125,197.166259765625,-141.361572265625,2.368473081326986,-3.035881658039993,-0.0,0.0,-0.03777777777777778,-0.023333333333333334,1.6833333333333333,2.79,1.64,8.05,11.705226944
1671151703.693453,0,51.037353515625,197.226318359375,135.483642578125,1,-278.5452880859375,114.992919921875,-57.8828125,2,-266.56121826171875,115.99462890625,-110.5146484375,3,112.2724609375,197.224365234375,-141.650146484375,2.368473081326986,-3.035881658039993,-0.0,0.0,-0.03777777777777778,-0.023333333333333334,1.6833333333333333,2.79,1.64,8.05,11.705226944
1671151703.7034936,0,50.8602294921875,197.18701171875,135.3359375,1,-278.99267578125,115.044189453125,-57.38037109375,2,-267.282470703125,116.169921875,-110.002685546875,3,111.517333984375,197.256591796875,-141.9169921875,2.368473081326986,-3.035881658039993,-0.0,0.0,-0.03777777777777778,-0.023333333333333334,1.6833333333333333,2.79,1.64,8.05,11.705226944
1671151703.7134867,0,50.4449462890625,197.110107421875,135.133544921875,1,-279.345703125,115.0048828125,-57.14990234375,2,-267.74285888671875,116.143310546875,-109.744873046875,3,110.845703125,197.396728515625,-142.204833984375,2.368473081326986,-3.035881658039993,-0.0,0.0,-0.03777777777777778,-0.023333333333333334,1.6833333333333333,2.79,1.64,8.05,11.705226944
1671151703.7234957,0,50.1456298828125,197.1357421875,134.98828125,1,-279.48431396484375,115.00830078125,-57.227294921875,2,-267.96929931640625,116.187255859375,-109.88623046875,3,110.5079345703125,197.53125,-142.30224609375,2.368473081326986,-3.035881658039993,-0.0,0.0,-0.03777777777777778,-0.023333333333333334,1.6833333333333333,2.79,1.64,8.05,11.705226944
1671151703.7334886,0,49.9466552734375,197.152587890625,135.022216796875,1,-279.62982177734375,115.0537109375,-57.5087890625,2,-268.058349609375,116.162353515625,-110.15185546875,3,110.5599365234375,197.420654296875,-142.230712890625,2.433271427510189,-3.093245700997144,-0.0,0.0,-0.02,-0.08333333333333333,0.5755555555555556,-0.07,1.82,11.01,11.695346336
1671151703.7434564,0,49.5892333984375,197.134521484375,135.115234375,1,-279.73583984375,115.1962890625,-57.935302734375,2,-268.07855224609375,116.210205078125,-110.578125,3,110.7623291015625,197.2919921875,-141.968017578125,2.433271427510189,-3.093245700997144,-0.0,0.0,-0.02,-0.08333333333333333,0.5755555555555556,-0.07,1.82,11.01,11.695346336
1671151703.7534878,0,49.3565673828125,197.119140625,135.090576171875,1,-279.7017822265625,115.2119140625,-58.381103515625,2,-267.88568115234375,116.164306640625,-110.99755859375,3,110.906494140625,197.259521484375,-141.899169921875,2.433271427510189,-3.093245700997144,-0.0,0.0,-0.02,-0.08333333333333333,0.5755555555555556,-0.07,1.82,11.01,11.695346336
1671151703.7634866,0,49.2236328125,197.107177734375,135.016845703125,1,-279.6466064453125,115.14404296875,-58.6796875,2,-267.78302001953125,116.16796875,-111.233154296875,3,110.9482421875,197.333740234375,-141.918212890625,2.433271427510189,-3.093245700997144,-0.0,0.0,-0.02,-0.08333333333333333,0.5755555555555556,-0.07,1.82,11.01,11.695346336
1671151703.773503,0,49.5621337890625,197.334228515625,134.89794921875,1,-279.50274658203125,115.12060546875,-58.877685546875,2,-267.65234375,116.06982421875,-111.4560546875,3,111.2093505859375,197.184814453125,-141.968994140625,2.445310202411732,-3.1027903870744624,-0.0,0.0,0.03111111111111111,0.03777777777777778,-0.043333333333333335,3.18,0.69,9.06,11.695346336
1671151703.7835789,0,49.3712158203125,197.057861328125,135.02587890625,1,-279.40594482421875,115.069580078125,-58.99169921875,2,-267.42718505859375,116.017333984375,-111.637451171875,3,111.348388671875,197.220947265625,-141.957763671875,2.445310202411732,-3.1027903870744624,-0.0,0.0,0.03111111111111111,0.03777777777777778,-0.043333333333333335,3.18,0.69,9.06,11.695346336
1671151703.7934525,0,49.4134521484375,197.000244140625,135.10009765625,1,-279.26116943359375,115.120849609375,-59.02734375,2,-267.38818359375,116.1259765625,-111.651123046875,3,111.605712890625,197.215576171875,-141.822021484375,2.445310202411732,-3.1027903870744624,-0.0,0.0,0.03111111111111111,0.03777777777777778,-0.043333333333333335,3.18,0.69,9.06,11.695346336
1671151703.803492,0,49.52685546875,197.0302734375,135.12353515625,1,-279.11126708984375,115.100830078125,-59.081787109375,2,-267.1492919921875,116.091064453125,-111.711669921875,3,111.788330078125,197.1748046875,-141.73876953125,2.445310202411732,-3.1027903870744624,-0.0,0.0,0.03111111111111111,0.03777777777777778,-0.043333333333333335,3.18,0.69,9.06,11.695346336
1671151703.813475,0,49.6494140625,197.00048828125,135.13671875,1,-278.96087646484375,115.10302734375,-59.16015625,2,-267.04840087890625,116.10205078125,-111.735595703125,3,111.9769287109375,197.14208984375,-141.712646484375,2.445310202411732,-3.1027903870744624,-0.0,0.0,0.03111111111111111,0.03777777777777778,-0.043333333333333335,3.18,0.69,9.06,11.695346336
1671151703.8234935,0,49.7176513671875,197.005615234375,135.137451171875,1,-278.97698974609375,115.128173828125,-59.17578125,2,-267.00390625,116.115966796875,-111.7802734375,3,111.9525146484375,197.19775390625,-141.794677734375,2.445310202411732,-3.1027903870744624,-0.0,0.0,0.03111111111111111,0.03777777777777778,-0.043333333333333335,3.18,0.69,9.06,11.695346336
1671151703.8335707,0,49.7342529296875,196.989013671875,135.136474609375,1,-278.89691162109375,115.088134765625,-59.20751953125,2,-266.96337890625,116.10693359375,-111.7783203125,3,111.869384765625,197.27392578125,-141.796142578125,2.445310202411732,-3.1027903870744624,-0.0,0.0,0.03111111111111111,0.03777777777777778,-0.043333333333333335,3.18,0.69,9.06,11.695346336
1671151703.8434532,0,49.6812744140625,197.001708984375,135.135498046875,1,-279.02685546875,115.174560546875,-59.224365234375,2,-267.00811767578125,116.157958984375,-111.80712890625,3,111.9356689453125,197.209716796875,-141.73095703125,2.443055929820606,-3.1042292844730532,-0.0,0.0,-0.0033333333333333335,0.013333333333333334,-0.04,-1.98,2.04,9.51,11.682172192000001
1671151703.8534982,0,49.60595703125,196.999755859375,135.149658203125,1,-278.9774169921875,115.13427734375,-59.217529296875,2,-267.02813720703125,116.14697265625,-111.850341796875,3,111.8848876953125,197.1884765625,-141.696533203125,2.443055929820606,-3.1042292844730532,-0.0,0.0,-0.0033333333333333335,0.013333333333333334,-0.04,-1.98,2.04,9.51,11.682172192000001
1671151703.8635128,0,49.4998779296875,197.034912109375,135.108642578125,1,-279.01507568359375,115.124267578125,-59.297119140625,2,-267.06878662109375,116.173095703125,-111.88427734375,3,111.82470703125,197.217041015625,-141.771484375,2.443151856313846,-3.1036057622669975,-0.0,0.0,-0.2822222222222222,-0.0,-0.005555555555555556,-0.64,1.74,9.57,11.678878656
1671151703.8735123,0,49.449462890625,196.983154296875,135.09716796875,1,-279.08154296875,115.15478515625,-59.328125,2,-267.0670166015625,116.136962890625,-111.923583984375,3,111.773193359375,197.23046875,-141.822021484375,2.443151856313846,-3.1036057622669975,-0.0,0.0,-0.2822222222222222,-0.0,-0.005555555555555556,-0.64,1.74,9.57,11.678878656
1671151703.8835065,0,49.498291015625,196.978515625,135.1474609375,1,-279.0357666015625,115.17822265625,-59.337158203125,2,-267.08892822265625,116.14794921875,-111.930908203125,3,111.749755859375,197.221923828125,-141.801025390625,2.443151856313846,-3.1036057622669975,-0.0,0.0,-0.2822222222222222,-0.0,-0.005555555555555556,-0.64,1.74,9.57,11.678878656
1671151703.893453,0,49.47314453125,197.01416015625,135.12060546875,1,-279.041015625,115.203857421875,-59.304931640625,2,-267.07720947265625,116.19140625,-111.9208984375,3,111.7886962890625,197.259033203125,-141.753662109375,2.443151856313846,-3.1036057622669975,-0.0,0.0,-0.2822222222222222,-0.0,-0.005555555555555556,-0.64,1.74,9.57,11.678878656
1671151703.9034925,0,49.524169921875,197.01416015625,135.123779296875,1,-279.04400634765625,115.164306640625,-59.297607421875,2,-267.04071044921875,116.1435546875,-111.91796875,3,111.828369140625,197.23876953125,-141.746337890625,2.443151856313846,-3.1036057622669975,-0.0,0.0,-0.2822222222222222,-0.0,-0.005555555555555556,-0.64,1.74,9.57,11.678878656
1671151703.9134922,0,49.5894775390625,197.025390625,135.163818359375,1,-278.94049072265625,115.184814453125,-59.326416015625,2,-267.0064697265625,116.2080078125,-111.938720703125,3,111.8681640625,197.230224609375,-141.737060546875,2.443151856313846,-3.1036057622669975,-0.0,0.0,-0.2822222222222222,-0.0,-0.005555555555555556,-0.64,1.74,9.57,11.678878656
1671151703.9234898,0,49.62939453125,196.97216796875,135.12109375,1,-278.963623046875,115.2451171875,-59.308837890625,2,-266.95416259765625,116.159912109375,-111.90283203125,3,111.85302734375,197.22900390625,-141.787109375,2.4430079665739863,-3.103701688760237,-0.0,0.0,0.0011111111111111111,-0.005555555555555556,-0.006666666666666667,0.01,2.07,9.69,11.688759264
1671151703.9335806,0,49.56640625,196.96923828125,135.16796875,1,-278.91412353515625,115.213623046875,-59.322998046875,2,-266.93096923828125,116.193359375,-111.92919921875,3,111.9241943359375,197.215087890625,-141.770751953125,2.4430079665739863,-3.103701688760237,-0.0,0.0,0.0011111111111111111,-0.005555555555555556,-0.006666666666666667,0.01,2.07,9.69,11.688759264
1671151703.9434524,0,49.56640625,196.94482421875,135.171875,1,-278.95281982421875,115.224853515625,-59.291015625,2,-266.97265625,116.211181640625,-111.925048828125,3,111.914794921875,197.216796875,-141.710693359375,2.4430079665739863,-3.103701688760237,-0.0,0.0,0.0011111111111111111,-0.005555555555555556,-0.006666666666666667,0.01,2.07,9.69,11.688759264
1671151703.9534829,0,49.5396728515625,196.969482421875,135.166015625,1,-278.94891357421875,115.264404296875,-59.302978515625,2,-267.026611328125,116.189208984375,-111.912841796875,3,111.9049072265625,197.216552734375,-141.755615234375,2.4430079665739863,-3.103701688760237,-0.0,0.0,0.0011111111111111111,-0.005555555555555556,-0.006666666666666667,0.01,2.07,9.69,11.688759264
1671151703.9635,0,49.49609375,197.022705078125,135.11572265625,1,-278.82440185546875,115.27685546875,-59.285888671875,2,-266.990966796875,116.228759765625,-111.943115234375,3,111.8887939453125,197.222412109375,-141.782958984375,2.4430079665739863,-3.103701688760237,-0.0,0.0,0.0011111111111111111,-0.005555555555555556,-0.006666666666666667,0.01,2.07,9.69,11.688759264
1671151703.9734936,0,49.4833984375,196.991455078125,135.152587890625,1,-279.039306640625,115.265869140625,-59.328369140625,2,-267.00018310546875,116.17529296875,-111.94189453125,3,111.8544921875,197.2451171875,-141.80615234375,2.4431038930672258,-3.103653725513617,-0.0,0.0,-0.0011111111111111111,0.0077777777777777776,-0.005555555555555556,-0.35,1.98,9.64,11.698639872000001
1671151703.9835806,0,49.513916015625,196.942626953125,135.143310546875,1,-278.97900390625,115.21923828125,-59.328369140625,2,-267.00299072265625,116.1787109375,-111.95849609375,3,111.837646484375,197.243896484375,-141.8125,2.4431038930672258,-3.103653725513617,-0.0,0.0,-0.0011111111111111111,0.0077777777777777776,-0.005555555555555556,-0.35,1.98,9.64,11.698639872000001
1671151703.9935114,0,49.5247802734375,196.9794921875,135.162841796875,1,-278.9757080078125,115.29296875,-59.341064453125,2,-267.0374755859375,116.26025390625,-111.939697265625,3,111.9039306640625,197.213134765625,-141.735595703125,2.4431038930672258,-3.103653725513617,-0.0,0.0,-0.0011111111111111111,0.0077777777777777776,-0.005555555555555556,-0.35,1.98,9.64,11.698639872000001
1671151704.0034823,0,49.5648193359375,197.0126953125,135.11376953125,1,-278.91107177734375,115.255126953125,-59.339599609375,2,-266.967041015625,116.221435546875,-111.93408203125,3,111.9326171875,197.239501953125,-141.744873046875,2.4431038930672258,-3.103653725513617,-0.0,0.0,-0.0011111111111111111,0.0077777777777777776,-0.005555555555555556,-0.35,1.98,9.64,11.698639872000001
1671151704.0134876,0,49.62353515625,196.98876953125,135.1083984375,1,-278.88616943359375,115.25244140625,-59.351318359375,2,-266.98406982421875,116.229248046875,-111.928955078125,3,111.896728515625,197.2265625,-141.7705078125,2.4431038930672258,-3.103653725513617,-0.0,0.0,-0.0011111111111111111,0.0077777777777777776,-0.005555555555555556,-0.35,1.98,9.64,11.698639872000001
1671151704.023483,0,49.5946044921875,196.97119140625,135.14501953125,1,-278.877197265625,115.306396484375,-59.32275390625,2,-266.974853515625,116.25146484375,-111.947998046875,3,111.890625,197.21875,-141.740966796875,2.4431038930672258,-3.103653725513617,-0.0,0.0,-0.0011111111111111111,0.0077777777777777776,-0.005555555555555556,-0.35,1.98,9.64,11.698639872000001
1671151704.0335512,0,49.614501953125,196.9716796875,135.12939453125,1,-278.91741943359375,115.281494140625,-59.341064453125,2,-266.9954833984375,116.21435546875,-111.960693359375,3,111.859619140625,197.2275390625,-141.7998046875,2.4430079665739863,-3.103701688760237,-9.5,-9.5,-0.0011111111111111111,0.0011111111111111111,-0.0077777777777777776,-0.13,1.89,9.61,11.695346336
1671151704.0434525,0,49.580810546875,196.9443359375,135.1259765625,1,-278.96026611328125,115.32958984375,-59.329833984375,2,-267.0289306640625,116.2392578125,-111.9736328125,3,111.952392578125,197.167236328125,-141.7431640625,2.4430079665739863,-3.103701688760237,-9.5,-9.5,-0.0011111111111111111,0.0011111111111111111,-0.0077777777777777776,-0.13,1.89,9.61,11.695346336
1671151704.053492,0,49.457275390625,196.987060546875,135.1044921875,1,-279.052978515625,115.28271484375,-59.314208984375,2,-267.12030029296875,116.20361328125,-111.939697265625,3,111.8035888671875,197.17724609375,-141.771484375,2.4430079665739863,-3.103701688760237,-9.5,-9.5,-0.0011111111111111111,0.0011111111111111111,-0.0077777777777777776,-0.13,1.89,9.61,11.695346336
1671151704.063512,0,49.37451171875,196.9638671875,135.083984375,1,-279.22119140625,115.313232421875,-59.279541015625,2,-267.381103515625,116.28173828125,-111.8701171875,3,111.6175537109375,197.222900390625,-141.7880859375,2.4430079665739863,-3.103701688760237,-9.5,-9.5,-0.0011111111111111111,0.0011111111111111111,-0.0077777777777777776,-0.13,1.89,9.61,11.695346336
1671151704.073491,0,49.2733154296875,196.974853515625,135.092529296875,1,-279.4058837890625,115.300048828125,-59.18896484375,2,-267.584716796875,116.24560546875,-111.787353515625,3,111.263671875,197.241455078125,-141.95703125,2.4430079665739863,-3.103701688760237,-9.5,-9.5,-0.0011111111111111111,0.0011111111111111111,-0.0077777777777777776,-0.13,1.89,9.61,11.695346336
1671151704.083614,0,49.1060791015625,196.9267578125,134.983154296875,1,-279.6549072265625,115.31494140625,-59.1279296875,2,-267.87554931640625,116.222900390625,-111.75146484375,3,110.9681396484375,197.23046875,-142.008056640625,2.4417609221618743,-3.1068192997905166,-43.2,-43.2,0.0011111111111111111,0.28444444444444444,-0.0033333333333333335,-0.69,1.84,9.58,11.659117440000001
1671151704.0934525,0,48.7138671875,196.823974609375,135.052490234375,1,-280.21710205078125,115.274658203125,-59.3046875,2,-268.36712646484375,116.254150390625,-111.889892578125,3,110.802001953125,197.065185546875,-141.919677734375,2.4417609221618743,-3.1068192997905166,-43.2,-43.2,0.0011111111111111111,0.28444444444444444,-0.0033333333333333335,-0.69,1.84,9.58,11.659117440000001
1671151704.103492,0,48.2550048828125,196.6728515625,134.98291015625,1,-280.8978271484375,115.4111328125,-59.63134765625,2,-269.0496826171875,116.4033203125,-112.239501953125,3,110.500732421875,196.91796875,-141.913818359375,2.4417609221618743,-3.1068192997905166,-43.2,-43.2,0.0011111111111111111,0.28444444444444444,-0.0033333333333333335,-0.69,1.84,9.58,11.659117440000001
1671151704.1134844,0,47.13720703125,196.673828125,134.8203125,1,-281.81402587890625,116.075927734375,-60.30322265625,2,-269.8360595703125,117.078369140625,-112.935791015625,3,109.9188232421875,196.771728515625,-141.88232421875,2.4417609221618743,-3.1068192997905166,-43.2,-43.2,0.0011111111111111111,0.28444444444444444,-0.0033333333333333335,-0.69,1.84,9.58,11.659117440000001
1671151704.123477,0,45.884765625,196.625732421875,134.568603515625,1,-282.94775390625,116.9306640625,-61.14599609375,2,-270.89013671875,117.88525390625,-113.718994140625,3,109.0418701171875,196.697265625,-142.0068359375,2.4417609221618743,-3.1068192997905166,-43.2,-43.2,0.0011111111111111111,0.28444444444444444,-0.0033333333333333335,-0.69,1.84,9.58,11.659117440000001
1671151704.133576,0,44.3677978515625,196.42236328125,134.2822265625,1,-284.561279296875,117.772705078125,-62.006103515625,2,-272.500244140625,118.85888671875,-114.562255859375,3,107.784912109375,196.6923828125,-142.278076171875,2.4151413202879457,-3.130081474401067,-71.6,-71.6,0.0011111111111111111,0.017777777777777778,0.044444444444444446,1.05,1.78,10.57,11.662410976
1671151704.1435423,0,42.525634765625,196.290771484375,133.94091796875,1,-286.68548583984375,118.557373046875,-62.725341796875,2,-274.31768798828125,119.59326171875,-115.267822265625,3,106.322021484375,196.650146484375,-142.580078125,2.4151413202879457,-3.130081474401067,-71.6,-71.6,0.0011111111111111111,0.017777777777777778,0.044444444444444446,1.05,1.78,10.57,11.662410976
1671151704.153588,0,40.5350341796875,196.09716796875,133.521728515625,1,-288.7261962890625,119.28564453125,-63.470703125,2,-276.20660400390625,120.63037109375,-116.05029296875,3,104.6339111328125,196.541748046875,-142.839111328125,2.4151413202879457,-3.130081474401067,-71.6,-71.6,0.0011111111111111111,0.017777777777777778,0.044444444444444446,1.05,1.78,10.57,11.662410976
1671151704.1636152,0,38.088623046875,195.873046875,133.05419921875,1,-290.88116455078125,120.547607421875,-64.3310546875,2,-278.55767822265625,121.88623046875,-117.20654296875,3,102.6856689453125,196.21484375,-143.260498046875,2.4151413202879457,-3.130081474401067,-71.6,-71.6,0.0011111111111111111,0.017777777777777778,0.044444444444444446,1.05,1.78,10.57,11.662410976
1671151704.173592,0,35.6502685546875,195.69775390625,132.462890625,1,-293.19189453125,121.229736328125,-64.900146484375,2,-281.11322021484375,122.60595703125,-118.178955078125,3,100.34033203125,195.93408203125,-143.625244140625,2.3091425452584273,-3.2501814439367744,-89.6,-89.6,0.0033333333333333335,0.22555555555555556,-0.14666666666666667,-0.88,1.62,9.56,11.649236832
1671151704.1836429,0,32.5574951171875,195.394775390625,131.966552734375,1,-296.49127197265625,122.597900390625,-66.452880859375,2,-284.22149658203125,123.662353515625,-119.223876953125,3,97.7283935546875,195.849853515625,-144.255615234375,2.3091425452584273,-3.2501814439367744,-89.6,-89.6,0.0033333333333333335,0.22555555555555556,-0.14666666666666667,-0.88,1.62,9.56,11.649236832
1671151704.193454,0,28.97998046875,195.38134765625,131.10595703125,1,-300.05419921875,124.231689453125,-67.667724609375,2,-287.69293212890625,125.195068359375,-120.30126953125,3,94.58740234375,195.754638671875,-144.947998046875,2.3091425452584273,-3.2501814439367744,-89.6,-89.6,0.0033333333333333335,0.22555555555555556,-0.14666666666666667,-0.88,1.62,9.56,11.649236832
1671151704.2035103,0,25.6612548828125,195.0224609375,130.447998046875,1,-303.4306640625,125.41259765625,-69.006591796875,2,-290.94232177734375,126.397705078125,-121.578125,3,91.339599609375,195.355712890625,-145.74560546875,2.3091425452584273,-3.2501814439367744,-89.6,-89.6,0.0033333333333333335,0.22555555555555556,-0.14666666666666667,-0.88,1.62,9.56,11.649236832
1671151704.2134838,0,21.681884765625,194.68798828125,129.62158203125,1,-307.4271240234375,126.73046875,-70.720703125,2,-294.87164306640625,127.6201171875,-123.151611328125,3,87.67626953125,195.035888671875,-146.55078125,2.3091425452584273,-3.2501814439367744,-89.6,-89.6,0.0033333333333333335,0.22555555555555556,-0.14666666666666667,-0.88,1.62,9.56,11.649236832
1671151704.2234871,0,17.058837890625,194.638671875,128.6552734375,1,-311.99359130859375,128.465087890625,-72.23046875,2,-299.363037109375,129.394775390625,-124.68994140625,3,83.3240966796875,194.913818359375,-147.559814453125,2.0799261896629218,-3.4964727153288906,-90.0,-90.0,-0.24,0.4822222222222222,-0.10777777777777778,-4.3,2.17,8.99,11.570191968
1671151704.2336357,0,12.7769775390625,194.47509765625,127.593017578125,1,-316.1552734375,129.515380859375,-73.798583984375,2,-303.42156982421875,130.4736328125,-126.183837890625,3,79.178466796875,194.48583984375,-148.38671875,2.0799261896629218,-3.4964727153288906,-90.0,-90.0,-0.24,0.4822222222222222,-0.10777777777777778,-4.3,2.17,8.99,11.570191968
1671151704.2435353,0,7.612548828125,193.992919921875,126.526611328125,1,-321.4246826171875,130.39111328125,-75.410400390625,2,-308.28704833984375,131.570556640625,-127.853759765625,3,74.7275390625,194.308837890625,-149.461181640625,2.0799261896629218,-3.4964727153288906,-90.0,-90.0,-0.24,0.4822222222222222,-0.10777777777777778,-4.3,2.17,8.99,11.570191968
1671151704.253624,0,2.86865234375,193.950927734375,125.466064453125,1,-326.1043701171875,131.22998046875,-76.896240234375,2,-313.01031494140625,132.282958984375,-129.204345703125,3,70.158447265625,194.23583984375,-150.495361328125,2.0799261896629218,-3.4964727153288906,-90.0,-90.0,-0.24,0.4822222222222222,-0.10777777777777778,-4.3,2.17,8.99,11.570191968
1671151704.263585,0,-2.655517578125,193.6923828125,124.19140625,1,-331.45697021484375,132.03759765625,-78.195556640625,2,-318.5452880859375,133.0390625,-130.593505859375,3,64.7174072265625,194.182373046875,-151.810546875,2.0799261896629218,-3.4964727153288906,-90.0,-90.0,-0.24,0.4822222222222222,-0.10777777777777778,-4.3,2.17,8.99,11.570191968
1671151704.2736204,0,-8.49560546875,193.52197265625,122.8779296875,1,-337.9000244140625,132.316162109375,-79.702880859375,2,-324.44879150390625,133.34326171875,-132.1083984375,3,58.85791015625,194.1572265625,-152.9970703125,2.0799261896629218,-3.4964727153288906,-90.0,-90.0,-0.24,0.4822222222222222,-0.10777777777777778,-4.3,2.17,8.99,11.570191968
1671151704.283585,0,-14.10760498046875,193.684814453125,121.523193359375,1,-343.4090576171875,132.005615234375,-81.210693359375,2,-329.74932861328125,133.21484375,-133.46484375,3,53.421875,194.095703125,-154.19775390625,1.74125770528128,-3.873703649992764,-90.0,-90.0,0.035555555555555556,0.4211111111111111,-0.15666666666666668,-2.98,1.73,11.96,11.580072576000001
1671151704.2935727,0,-20.3922119140625,193.709228515625,119.9521484375,1,-349.23028564453125,131.5625,-82.626708984375,2,-336.12744140625,132.587646484375,-134.97998046875,3,47.1815185546875,194.419677734375,-155.830078125,1.74125770528128,-3.873703649992764,-90.0,-90.0,0.035555555555555556,0.4211111111111111,-0.15666666666666668,-2.98,1.73,11.96,11.580072576000001
1671151704.3036385,0,-26.340087890625,193.64111328125,118.482177734375,1,-354.7069091796875,130.232421875,-84.042724609375,2,-341.7728271484375,131.09326171875,-136.413330078125,3,41.1988525390625,194.381591796875,-157.346435546875,1.74125770528128,-3.873703649992764,-90.0,-90.0,0.035555555555555556,0.4211111111111111,-0.15666666666666668,-2.98,1.73,11.96,11.580072576000001
1671151704.3135796,0,-33.04730224609375,194.1494140625,116.73681640625,1,-361.066650390625,128.392578125,-85.561767578125,2,-348.13787841796875,129.37451171875,-137.933837890625,3,34.3682861328125,194.872314453125,-159.0458984375,1.74125770528128,-3.873703649992764,-90.0,-90.0,0.035555555555555556,0.4211111111111111,-0.15666666666666668,-2.98,1.73,11.96,11.580072576000001
1671151704.3236222,0,-40.3289794921875,194.404296875,115.1171875,1,-367.76953125,125.885498046875,-87.127197265625,2,-354.78839111328125,126.988525390625,-139.62255859375,3,27.1864013671875,195.2529296875,-160.7763671875,1.416930231638926,-4.1508832522079615,-90.0,-90.0,0.1,0.08,-0.027777777777777776,-2.94,1.73,7.93,11.6097144
1671151704.3336222,0,-46.92877197265625,194.530029296875,113.548828125,1,-373.82818603515625,123.352783203125,-88.7841796875,2,-360.9361572265625,124.394287109375,-141.1845703125,3,20.4521484375,195.551025390625,-162.4150390625,1.416930231638926,-4.1508832522079615,-90.0,-90.0,0.1,0.08,-0.027777777777777776,-2.94,1.73,7.93,11.6097144
1671151704.3434856,0,-54.77337646484375,195.142822265625,111.724609375,1,-380.78302001953125,119.8486328125,-90.259033203125,2,-367.84808349609375,120.92041015625,-142.764404296875,3,13.2161865234375,196.041015625,-163.95703125,1.416930231638926,-4.1508832522079615,-90.0,-90.0,0.1,0.08,-0.027777777777777776,-2.94,1.73,7.93,11.6097144
1671151704.353625,0,-61.85528564453125,195.679443359375,109.857666015625,1,-386.9320068359375,116.336181640625,-91.959716796875,2,-374.09051513671875,117.39794921875,-144.33935546875,3,6.111328125,196.804443359375,-165.5830078125,1.416930231638926,-4.1508832522079615,-90.0,-90.0,0.1,0.08,-0.027777777777777776,-2.94,1.73,7.93,11.6097144
1671151704.3635821,0,-69.95819091796875,195.896484375,108.03662109375,1,-393.85296630859375,115.66943359375,-93.675537109375,2,-381.01348876953125,116.879638671875,-146.12939453125,3,-1.8404541015625,197.361572265625,-167.477783203125,1.416930231638926,-4.1508832522079615,-90.0,-90.0,0.1,0.08,-0.027777777777777776,-2.94,1.73,7.93,11.6097144
1671151704.3735898,0,-76.87872314453125,195.737060546875,106.29296875,1,-401.52471923828125,115.525146484375,-95.54248046875,2,-388.64764404296875,116.7119140625,-147.866455078125,3,-8.7001953125,197.017822265625,-169.220947265625,1.090444411898686,-4.461397310823844,-90.0,-90.0,-0.022222222222222223,-0.8244444444444444,-0.025555555555555557,-3.6,-0.25,11.81,11.616301472
1671151704.3835864,0,-83.68927001953125,196.08544921875,104.641845703125,1,-407.7645263671875,115.136962890625,-96.86328125,2,-394.85919189453125,116.321533203125,-149.21337890625,3,-15.72930908203125,197.313720703125,-170.769775390625,1.090444411898686,-4.461397310823844,-90.0,-90.0,-0.022222222222222223,-0.8244444444444444,-0.025555555555555557,-3.6,-0.25,11.81,11.616301472
1671151704.3935375,0,-90.5506591796875,195.841064453125,103.1044921875,1,-414.91680908203125,115.003173828125,-98.560546875,2,-401.5374755859375,116.48193359375,-151.00927734375,3,-22.62017822265625,197.1337890625,-172.53076171875,1.090444411898686,-4.461397310823844,-90.0,-90.0,-0.022222222222222223,-0.8244444444444444,-0.025555555555555557,-3.6,-0.25,11.81,11.616301472
1671151704.403488,0,-96.48095703125,195.843994140625,101.63720703125,1,-420.95391845703125,114.421630859375,-99.579833984375,2,-407.77716064453125,116.4013671875,-152.423583984375,3,-28.6405029296875,196.73388671875,-174.050537109375,1.090444411898686,-4.461397310823844,-90.0,-90.0,-0.022222222222222223,-0.8244444444444444,-0.025555555555555557,-3.6,-0.25,11.81,11.616301472
1671151704.413602,0,-103.0234375,195.702392578125,100.169921875,1,-427.45916748046875,114.27783203125,-100.807861328125,2,-414.872802734375,116.81689453125,-153.86767578125,3,-35.52044677734375,196.806640625,-175.5595703125,1.090444411898686,-4.461397310823844,-90.0,-90.0,-0.022222222222222223,-0.8244444444444444,-0.025555555555555557,-3.6,-0.25,11.81,11.616301472
1671151704.4235027,0,-109.312744140625,195.864501953125,98.610595703125,1,-434.243896484375,113.8486328125,-102.3642578125,2,-420.63433837890625,116.502685546875,-155.362060546875,3,-41.73480224609375,196.998291015625,-177.125244140625,0.7442936610443727,-4.826397617599697,-90.0,-90.0,-0.26,0.3022222222222222,-0.2811111111111111,-0.49,2.68,13.44,11.675585120000001
1671151704.4336073,0,-114.833740234375,195.880615234375,97.331787109375,1,-439.6260986328125,114.372314453125,-103.802490234375,2,-426.20208740234375,116.480712890625,-156.6630859375,3,-47.2110595703125,196.81689453125,-178.26318359375,0.7442936610443727,-4.826397617599697,-90.0,-90.0,-0.26,0.3022222222222222,-0.2811111111111111,-0.49,2.68,13.44,11.675585120000001
1671151704.443505,0,-121.07147216796875,195.70166015625,95.750732421875,1,-445.79071044921875,114.323974609375,-105.15576171875,2,-432.3709716796875,116.635498046875,-158.326904296875,3,-53.45550537109375,196.760498046875,-179.794189453125,0.7442936610443727,-4.826397617599697,-90.0,-90.0,-0.26,0.3022222222222222,-0.2811111111111111,-0.49,2.68,13.44,11.675585120000001
1671151704.4534845,0,-126.7840576171875,195.804443359375,94.39697265625,1,-451.31219482421875,114.38232421875,-106.642333984375,2,-438.1624755859375,116.363037109375,-159.5791015625,3,-58.8297119140625,196.607177734375,-181.228515625,0.7442936610443727,-4.826397617599697,-90.0,-90.0,-0.26,0.3022222222222222,-0.2811111111111111,-0.49,2.68,13.44,11.675585120000001
1671151704.4634876,0,-132.9571533203125,195.899658203125,92.695068359375,1,-457.2371826171875,114.93505859375,-108.431884765625,2,-444.21148681640625,116.671875,-161.220947265625,3,-65.19873046875,196.600341796875,-182.8125,0.7442936610443727,-4.826397617599697,-90.0,-90.0,-0.26,0.3022222222222222,-0.2811111111111111,-0.49,2.68,13.44,11.675585120000001
1671151704.473495,0,-138.9339599609375,195.87841796875,91.2236328125,1,-463.323974609375,114.696533203125,-109.60693359375,2,-450.35992431640625,116.6455078125,-162.62353515625,3,-71.3062744140625,196.59619140625,-184.663818359375,0.36288992392458586,-5.18808846035879,-90.0,-90.0,-0.0011111111111111111,0.06888888888888889,-0.015555555555555555,-1.83,3.48,11.3,11.652530368
1671151704.483582,0,-144.4583740234375,195.786376953125,89.8486328125,1,-468.814453125,115.01611328125,-111.0283203125,2,-455.9161376953125,116.78271484375,-163.951416015625,3,-76.99078369140625,196.4794921875,-185.9921875,0.36288992392458586,-5.18808846035879,-90.0,-90.0,-0.0011111111111111111,0.06888888888888889,-0.015555555555555555,-1.83,3.48,11.3,11.652530368
1671151704.4934883,0,-150.56134033203125,195.8994140625,88.429931640625,1,-474.9508056640625,114.785888671875,-112.138671875,2,-462.1837158203125,116.548583984375,-165.339111328125,3,-82.98175048828125,196.29052734375,-187.42578125,0.36288992392458586,-5.18808846035879,-90.0,-90.0,-0.0011111111111111111,0.06888888888888889,-0.015555555555555555,-1.83,3.48,11.3,11.652530368
1671151704.5034873,0,-156.09918212890625,195.997802734375,87.033935546875,1,-480.4769287109375,114.914306640625,-113.722900390625,2,-467.39996337890625,116.687744140625,-166.736328125,3,-88.56658935546875,196.46875,-188.79150390625,0.36288992392458586,-5.18808846035879,-90.0,-90.0,-0.0011111111111111111,0.06888888888888889,-0.015555555555555555,-1.83,3.48,11.3,11.652530368
1671151704.513484,0,-162.39398193359375,195.704345703125,85.462646484375,1,-486.75775146484375,114.60986328125,-115.110107421875,2,-473.7462158203125,116.88671875,-168.28369140625,3,-94.85107421875,196.316650390625,-190.3193359375,0.36288992392458586,-5.18808846035879,-90.0,-90.0,-0.0011111111111111111,0.06888888888888889,-0.015555555555555555,-1.83,3.48,11.3,11.652530368
1671151704.5234864,0,-168.7685546875,196.093505859375,83.8916015625,1,-493.14202880859375,114.76416015625,-116.846435546875,2,-480.23138427734375,116.413330078125,-169.9853515625,3,-101.20220947265625,196.35205078125,-191.83203125,0.36288992392458586,-5.18808846035879,-90.0,-90.0,-0.0011111111111111111,0.06888888888888889,-0.015555555555555555,-1.83,3.48,11.3,11.652530368
1671151704.5336194,0,-174.51092529296875,195.97265625,82.406494140625,1,-499.040283203125,114.819580078125,-118.697021484375,2,-485.9322509765625,116.295166015625,-171.459716796875,3,-107.04180908203125,196.348388671875,-193.451904296875,0.36288992392458586,-5.18808846035879,-90.0,-90.0,-0.0011111111111111111,0.06888888888888889,-0.015555555555555555,-1.83,3.48,11.3,11.652530368
1671151704.5434885,0,-180.92742919921875,196.02880859375,80.80859375,1,-505.5380859375,114.59375,-120.044921875,2,-492.3900146484375,116.311279296875,-172.99755859375,3,-113.2469482421875,196.2822265625,-194.69580078125,-0.014293047492668066,-5.56119455581337,-90.0,-90.0,-0.03,0.07,0.02,1.38,1.52,1.67,11.639356224
1671151704.5534925,0,-186.67010498046875,196.0986328125,79.471923828125,1,-511.218017578125,114.375244140625,-121.490478515625,2,-498.46343994140625,116.70849609375,-174.52880859375,3,-119.1046142578125,196.36474609375,-196.371337890625,-0.014293047492668066,-5.56119455581337,-90.0,-90.0,-0.03,0.07,0.02,1.38,1.52,1.67,11.639356224
1671151704.5634983,0,-192.9906005859375,195.930908203125,77.9765625,1,-517.7989501953125,114.64892578125,-123.410400390625,2,-504.4923095703125,116.5498046875,-175.79833984375,3,-125.45806884765625,196.12939453125,-197.836669921875,-0.014293047492668066,-5.56119455581337,-90.0,-90.0,-0.03,0.07,0.02,1.38,1.52,1.67,11.639356224
1671151704.5734873,0,-199.4425048828125,195.955322265625,76.34033203125,1,-524.1884765625,115.492919921875,-125.05029296875,2,-510.74224853515625,116.53759765625,-177.590576171875,3,-131.72723388671875,196.238037109375,-199.38134765625,-0.3601560188672635,-5.901925459799659,-90.0,-90.0,-0.05444444444444444,-0.05333333333333334,-0.0044444444444444444,1.63,1.76,8.5,11.626182080000001
1671151704.5835407,0,-205.245849609375,196.09814453125,74.8916015625,1,-529.4837646484375,115.39794921875,-126.390869140625,2,-516.1724243164062,116.5146484375,-178.957763671875,3,-137.55780029296875,196.257080078125,-200.91943359375,-0.3601560188672635,-5.901925459799659,-90.0,-90.0,-0.05444444444444444,-0.05333333333333334,-0.0044444444444444444,1.63,1.76,8.5,11.626182080000001
1671151704.5934954,0,-211.6580810546875,195.98876953125,73.344482421875,1,-535.48779296875,115.53369140625,-128.172607421875,2,-522.6282958984375,116.63623046875,-180.594970703125,3,-143.78643798828125,196.029052734375,-202.44677734375,-0.3601560188672635,-5.901925459799659,-90.0,-90.0,-0.05444444444444444,-0.05333333333333334,-0.0044444444444444444,1.63,1.76,8.5,11.626182080000001
1671151704.6035018,0,-217.3516845703125,195.957275390625,71.9580078125,1,-541.0867919921875,115.458251953125,-129.71728515625,2,-528.2945556640625,116.275390625,-182.055419921875,3,-149.58599853515625,196.377685546875,-203.81591796875,-0.3601560188672635,-5.901925459799659,-90.0,-90.0,-0.05444444444444444,-0.05333333333333334,-0.0044444444444444444,1.63,1.76,8.5,11.626182080000001
1671151704.6134984,0,-223.91558837890625,196.163330078125,70.448974609375,1,-547.3970947265625,115.76025390625,-131.482421875,2,-534.5347900390625,116.32763671875,-183.641357421875,3,-155.90838623046875,196.41455078125,-205.2353515625,-0.3601560188672635,-5.901925459799659,-90.0,-90.0,-0.05444444444444444,-0.05333333333333334,-0.0044444444444444444,1.63,1.76,8.5,11.626182080000001
1671151704.6235151,0,-230.347412109375,195.93701171875,68.85400390625,1,-553.8404541015625,115.029541015625,-132.799072265625,2,-540.6561279296875,116.466064453125,-185.603759765625,3,-162.24383544921875,196.127685546875,-206.8349609375,-0.6994959887015808,-6.245342305596649,-90.0,-90.0,0.27111111111111114,-0.07444444444444444,-0.017777777777777778,1.05,0.07,14.26,11.622888544
1671151704.6335855,0,-235.954833984375,196.08837890625,67.44580078125,1,-559.705078125,114.978759765625,-134.332275390625,2,-546.3176879882812,116.54833984375,-187.207275390625,3,-167.8839111328125,196.285888671875,-208.412841796875,-0.6994959887015808,-6.245342305596649,-90.0,-90.0,0.27111111111111114,-0.07444444444444444,-0.017777777777777778,1.05,0.07,14.26,11.622888544
1671151704.643484,0,-242.57550048828125,195.984619140625,65.909423828125,1,-565.9111328125,115.162353515625,-136.116455078125,2,-552.53515625,116.466064453125,-188.856689453125,3,-174.2135009765625,196.403076171875,-209.913818359375,-0.6994959887015808,-6.245342305596649,-90.0,-90.0,0.27111111111111114,-0.07444444444444444,-0.017777777777777778,1.05,0.07,14.26,11.622888544
1671151704.6534877,0,-248.1614990234375,196.0869140625,64.4521484375,1,-571.4501953125,115.693603515625,-137.95947265625,2,-558.1580810546875,116.633544921875,-190.361572265625,3,-179.87921142578125,196.361328125,-211.398681640625,-0.6994959887015808,-6.245342305596649,-90.0,-90.0,0.27111111111111114,-0.07444444444444444,-0.017777777777777778,1.05,0.07,14.26,11.622888544
1671151704.6635299,0,-254.5570068359375,196.152587890625,62.964111328125,1,-577.89794921875,115.28955078125,-139.3837890625,2,-564.5358276367188,116.69091796875,-192.132568359375,3,-186.23388671875,196.2470703125,-212.648681640625,-0.6994959887015808,-6.245342305596649,-90.0,-90.0,0.27111111111111114,-0.07444444444444444,-0.017777777777777778,1.05,0.07,14.26,11.622888544
1671151704.6734939,0,-260.91107177734375,196.366455078125,61.111083984375,1,-584.3783569335938,115.10302734375,-141.323974609375,2,-570.7293090820312,116.466064453125,-193.8486328125,3,-192.6812744140625,196.45361328125,-214.489501953125,-1.0753839524601032,-6.606649442382786,-90.0,-90.0,-0.03,0.05333333333333334,-0.056666666666666664,2.25,1.18,8.33,11.632769152
1671151704.6835356,0,-266.6990966796875,196.21923828125,59.7236328125,1,-590.1480712890625,115.396728515625,-142.64013671875,2,-576.6304931640625,116.68994140625,-195.212158203125,3,-198.0775146484375,196.232421875,-215.93798828125,-1.0753839524601032,-6.606649442382786,-90.0,-90.0,-0.03,0.05333333333333334,-0.056666666666666664,2.25,1.18,8.33,11.632769152
1671151704.6934984,0,-273.32965087890625,196.289306640625,58.12158203125,1,-596.6956787109375,115.49072265625,-144.36181640625,2,-582.9857788085938,116.533203125,-197.04248046875,3,-204.68896484375,196.3623046875,-217.44140625,-1.0753839524601032,-6.606649442382786,-90.0,-90.0,-0.03,0.05333333333333334,-0.056666666666666664,2.25,1.18,8.33,11.632769152
1671151704.7034955,0,-278.918212890625,196.379150390625,56.778076171875,1,-602.54345703125,114.984375,-145.93017578125,2,-588.60205078125,116.792724609375,-198.5908203125,3,-210.38519287109375,196.086181640625,-218.57763671875,-1.0753839524601032,-6.606649442382786,-90.0,-90.0,-0.03,0.05333333333333334,-0.056666666666666664,2.25,1.18,8.33,11.632769152
1671151704.7134864,0,-285.42144775390625,196.368896484375,55.205810546875,1,-609.1799926757812,115.70166015625,-147.654541015625,2,-594.9056396484375,116.7763671875,-200.3330078125,3,-216.62078857421875,196.025390625,-220.237060546875,-1.0753839524601032,-6.606649442382786,-90.0,-90.0,-0.03,0.05333333333333334,-0.056666666666666664,2.25,1.18,8.33,11.632769152
1671151704.7234547,0,-291.8387451171875,196.672607421875,53.659423828125,1,-614.9886474609375,115.13671875,-149.11767578125,2,-601.3564453125,116.664794921875,-201.906494140625,3,-222.8975830078125,196.688232421875,-221.98193359375,-1.4170261581321655,-6.949874435193298,-90.0,-90.0,-0.05333333333333334,-0.09111111111111111,-0.02,-3.7,1.68,11.07,11.626182080000001
1671151704.7335844,0,-297.63787841796875,196.5185546875,52.278076171875,1,-620.484130859375,115.3369140625,-150.864501953125,2,-606.8470458984375,116.821533203125,-203.5869140625,3,-228.54180908203125,196.381591796875,-223.266845703125,-1.4170261581321655,-6.949874435193298,-90.0,-90.0,-0.05333333333333334,-0.09111111111111111,-0.02,-3.7,1.68,11.07,11.626182080000001
1671151704.7434871,0,-304.18548583984375,196.345458984375,50.3466796875,1,-626.908447265625,115.472900390625,-152.654541015625,2,-613.2341918945312,116.801513671875,-205.26953125,3,-234.859130859375,196.012451171875,-224.827392578125,-1.4170261581321655,-6.949874435193298,-90.0,-90.0,-0.05333333333333334,-0.09111111111111111,-0.02,-3.7,1.68,11.07,11.626182080000001
1671151704.753487,0,-310.08416748046875,196.3427734375,48.875732421875,1,-632.30029296875,115.77880859375,-154.62060546875,2,-618.87646484375,116.724853515625,-206.91796875,3,-240.31658935546875,196.317138671875,-226.113525390625,-1.4170261581321655,-6.949874435193298,-90.0,-90.0,-0.05333333333333334,-0.09111111111111111,-0.02,-3.7,1.68,11.07,11.626182080000001
1671151704.7635193,0,-316.54364013671875,196.233642578125,47.119384765625,1,-638.7313232421875,115.34130859375,-156.31884765625,2,-625.239013671875,116.469482421875,-208.798828125,3,-246.9169921875,195.988525390625,-227.720947265625,-1.4170261581321655,-6.949874435193298,-90.0,-90.0,-0.05333333333333334,-0.09111111111111111,-0.02,-3.7,1.68,11.07,11.626182080000001
1671151704.7734902,0,-323.026123046875,196.208984375,45.57373046875,1,-645.2596435546875,115.478759765625,-157.806640625,2,-631.569091796875,116.73193359375,-210.487548828125,3,-253.18304443359375,196.2626953125,-229.59326171875,-1.776270875313655,-7.305042276412114,-90.0,-90.0,-0.0022222222222222222,-0.08222222222222222,-0.04777777777777778,1.23,0.76,17.9,11.642649760000001
1671151704.7835946,0,-328.92034912109375,196.1787109375,44.114990234375,1,-650.9528198242188,115.15673828125,-159.491943359375,2,-637.352783203125,116.535400390625,-212.08251953125,3,-258.992919921875,196.275634765625,-231.070556640625,-1.776270875313655,-7.305042276412114,-90.0,-90.0,-0.0022222222222222222,-0.08222222222222222,-0.04777777777777778,1.23,0.76,17.9,11.642649760000001
1671151704.7934844,0,-335.3023681640625,196.2626953125,42.479736328125,1,-657.5225830078125,115.210693359375,-161.41552734375,2,-643.660888671875,116.61083984375,-213.843017578125,3,-265.03570556640625,196.291748046875,-232.531982421875,-1.776270875313655,-7.305042276412114,-90.0,-90.0,-0.0022222222222222222,-0.08222222222222222,-0.04777777777777778,1.23,0.76,17.9,11.642649760000001
1671151704.8034916,0,-341.33428955078125,196.09033203125,41.271728515625,1,-663.0960693359375,115.01171875,-162.723876953125,2,-649.4149169921875,116.4296875,-215.2900390625,3,-271.040283203125,196.27685546875,-233.713623046875,-1.776270875313655,-7.305042276412114,-90.0,-90.0,-0.0022222222222222222,-0.08222222222222222,-0.04777777777777778,1.23,0.76,17.9,11.642649760000001
1671151704.813487,0,-347.66729736328125,196.25048828125,39.355712890625,1,-669.3616943359375,115.115234375,-164.546142578125,2,-655.5673828125,116.583740234375,-217.172119140625,3,-277.2808837890625,196.24072265625,-235.397216796875,-1.776270875313655,-7.305042276412114,-90.0,-90.0,-0.0022222222222222222,-0.08222222222222222,-0.04777777777777778,1.23,0.76,17.9,11.642649760000001
1671151704.8234866,0,-354.10595703125,196.13916015625,37.7919921875,1,-675.7440795898438,115.224853515625,-166.3046875,2,-662.1123657226562,116.629150390625,-218.964111328125,3,-283.668212890625,196.392333984375,-237.2412109375,-2.1441969401333085,-7.656037315175016,-82.1,-78.4,-0.013333333333333334,0.015555555555555555,-0.03666666666666667,0.76,2.2,11.57,11.636062688
1671151704.8336322,0,-359.85186767578125,196.188232421875,36.276611328125,1,-681.3504638671875,115.048583984375,-167.932373046875,2,-667.88671875,116.59228515625,-220.58984375,3,-289.25091552734375,196.25927734375,-238.469482421875,-2.1441969401333085,-7.656037315175016,-82.1,-78.4,-0.013333333333333334,0.015555555555555555,-0.03666666666666667,0.76,2.2,11.57,11.636062688
1671151704.8434992,0,-366.3994140625,196.300537109375,34.727294921875,1,-687.989013671875,114.962890625,-169.9638671875,2,-674.398681640625,116.77734375,-222.341552734375,3,-295.67303466796875,196.533935546875,-240.20166015625,-2.1441969401333085,-7.656037315175016,-82.1,-78.4,-0.013333333333333334,0.015555555555555555,-0.03666666666666667,0.76,2.2,11.57,11.636062688
1671151704.8534877,0,-372.16925048828125,195.7744140625,33.194580078125,1,-693.4874877929688,115.30615234375,-171.7294921875,2,-680.07373046875,116.98291015625,-224.0673828125,3,-301.29840087890625,196.24365234375,-241.6279296875,-2.1441969401333085,-7.656037315175016,-82.1,-78.4,-0.013333333333333334,0.015555555555555555,-0.03666666666666667,0.76,2.2,11.57,11.636062688
1671151704.863486,0,-378.48223876953125,196.018798828125,31.652099609375,1,-699.7526245117188,115.359375,-173.42333984375,2,-686.1676025390625,116.804443359375,-225.731201171875,3,-307.31329345703125,196.244140625,-243.10400390625,-2.1441969401333085,-7.656037315175016,-82.1,-78.4,-0.013333333333333334,0.015555555555555555,-0.03666666666666667,0.76,2.2,11.57,11.636062688
1671151704.8734884,0,-385.00848388671875,196.036865234375,30.084228515625,1,-705.6370849609375,115.7275390625,-175.298828125,2,-691.993408203125,116.739501953125,-227.535400390625,3,-313.6942138671875,196.173095703125,-244.46044921875,-2.1441969401333085,-7.656037315175016,-82.1,-78.4,-0.013333333333333334,0.015555555555555555,-0.03666666666666667,0.76,2.2,11.57,11.636062688
1671151704.8835733,0,-390.664794921875,196.0927734375,28.496337890625,1,-710.9217529296875,115.750244140625,-176.964111328125,2,-697.423095703125,116.589111328125,-229.1328125,3,-319.10076904296875,196.24951171875,-245.97216796875,-2.5056479666593034,-8.03307639685241,-2.0,-2.0,0.017777777777777778,-0.02,-0.05555555555555555,0.66,2.12,5.48,11.655823904
1671151704.8934963,0,-396.8699951171875,196.154541015625,26.98681640625,1,-716.8109130859375,115.855224609375,-178.852783203125,2,-703.3870849609375,116.1044921875,-230.6259765625,3,-325.07232666015625,196.541015625,-247.647705078125,-2.5056479666593034,-8.03307639685241,-2.0,-2.0,0.017777777777777778,-0.02,-0.05555555555555555,0.66,2.12,5.48,11.655823904
1671151704.9034874,0,-402.1055908203125,196.102294921875,25.59228515625,1,-721.8829345703125,115.872314453125,-180.469482421875,2,-708.1257934570312,116.562744140625,-232.510986328125,3,-330.19976806640625,196.502197265625,-248.833740234375,-2.5056479666593034,-8.03307639685241,-2.0,-2.0,0.017777777777777778,-0.02,-0.05555555555555555,0.66,2.12,5.48,11.655823904
1671151704.913484,0,-407.78240966796875,196.14697265625,24.232666015625,1,-727.516357421875,115.4580078125,-181.953369140625,2,-713.638916015625,116.716064453125,-234.223876953125,3,-335.4681396484375,196.2841796875,-249.955322265625,-2.5056479666593034,-8.03307639685241,-2.0,-2.0,0.017777777777777778,-0.02,-0.05555555555555555,0.66,2.12,5.48,11.655823904
1671151704.9234526,0,-412.96429443359375,195.980224609375,22.83154296875,1,-732.702880859375,115.160400390625,-183.150634765625,2,-718.748046875,116.657958984375,-235.711181640625,3,-340.67279052734375,196.173828125,-251.482666015625,-2.832037859906304,-8.312270455425635,-0.0,0.0,0.034444444444444444,-0.2311111111111111,-0.07111111111111111,1.71,2.62,11.29,11.932480928
1671151704.9335551,0,-417.29974365234375,196.093994140625,21.732666015625,1,-736.728759765625,115.542236328125,-184.478759765625,2,-722.80810546875,116.812255859375,-236.791259765625,3,-344.885986328125,196.096923828125,-252.491943359375,-2.832037859906304,-8.312270455425635,-0.0,0.0,0.034444444444444444,-0.2311111111111111,-0.07111111111111111,1.71,2.62,11.29,11.932480928
1671151704.9434514,0,-421.5123291015625,196.06005859375,20.475830078125,1,-741.3024291992188,115.3798828125,-185.518798828125,2,-727.29833984375,116.431396484375,-237.82568359375,3,-349.27734375,196.40380859375,-253.947265625,-2.832037859906304,-8.312270455425635,-0.0,0.0,0.034444444444444444,-0.2311111111111111,-0.07111111111111111,1.71,2.62,11.29,11.932480928
1671151704.9534943,0,-424.93243408203125,195.774658203125,19.4755859375,1,-745.295654296875,115.344970703125,-186.597900390625,2,-731.000732421875,116.65869140625,-238.90283203125,3,-352.5379638671875,195.927001953125,-254.7607421875,-2.832037859906304,-8.312270455425635,-0.0,0.0,0.034444444444444444,-0.2311111111111111,-0.07111111111111111,1.71,2.62,11.29,11.932480928
1671151704.9634721,0,-428.84564208984375,195.78271484375,18.381591796875,1,-748.73876953125,115.71826171875,-187.8095703125,2,-734.7596435546875,116.914794921875,-240.009033203125,3,-356.67425537109375,195.945068359375,-255.824951171875,-2.832037859906304,-8.312270455425635,-0.0,0.0,0.034444444444444444,-0.2311111111111111,-0.07111111111111111,1.71,2.62,11.29,11.932480928
1671151704.973452,0,-432.3828125,195.852294921875,17.377685546875,1,-752.4847412109375,115.55078125,-188.623779296875,2,-738.5130004882812,116.61083984375,-240.88818359375,3,-360.15631103515625,196.27685546875,-257.025146484375,-3.091758840351934,-8.537026229085509,-0.0,0.0,-0.012222222222222223,-0.10555555555555556,0.0044444444444444444,6.58,2.17,6.98,11.695346336
1671151704.983486,0,-435.21868896484375,195.69482421875,16.565185546875,1,-755.547607421875,115.622802734375,-189.5576171875,2,-741.4716796875,116.55517578125,-241.846435546875,3,-362.775146484375,196.072265625,-257.70849609375,-3.091758840351934,-8.537026229085509,-0.0,0.0,-0.012222222222222223,-0.10555555555555556,0.0044444444444444444,6.58,2.17,6.98,11.695346336
1671151704.9934525,0,-438.4454345703125,195.917236328125,15.68017578125,1,-758.4879760742188,115.5859375,-190.478271484375,2,-744.1038208007812,116.73291015625,-242.89990234375,3,-365.95660400390625,196.1748046875,-258.422119140625,-3.091758840351934,-8.537026229085509,-0.0,0.0,-0.012222222222222223,-0.10555555555555556,0.0044444444444444444,6.58,2.17,6.98,11.695346336
1671151705.0034826,0,-440.7850341796875,195.817138671875,15.094482421875,1,-760.74755859375,115.7939453125,-191.4052734375,2,-746.4141845703125,116.888427734375,-243.77392578125,3,-368.21368408203125,196.1103515625,-259.156494140625,-3.091758840351934,-8.537026229085509,-0.0,0.0,-0.012222222222222223,-0.10555555555555556,0.0044444444444444444,6.58,2.17,6.98,11.695346336
1671151705.0134814,0,-443.38336181640625,195.552978515625,14.483642578125,1,-762.76318359375,115.85205078125,-192.442138671875,2,-748.6732177734375,116.947265625,-244.690673828125,3,-370.53643798828125,196.149169921875,-259.927734375,-3.091758840351934,-8.537026229085509,-0.0,0.0,-0.012222222222222223,-0.10555555555555556,0.0044444444444444444,6.58,2.17,6.98,11.695346336
1671151705.023453,0,-445.64508056640625,195.77978515625,13.93310546875,1,-764.754638671875,115.7666015625,-193.2529296875,2,-750.6973876953125,116.78662109375,-245.431640625,3,-372.488525390625,196.348876953125,-260.328369140625,-3.158523679646544,-8.57122402392535,-0.0,0.0,-0.27666666666666667,0.19,-0.034444444444444444,6.8,2.15,8.53,11.665704512
1671151705.0335438,0,-447.40008544921875,195.556640625,13.5849609375,1,-766.3201904296875,115.651611328125,-193.8955078125,2,-752.3311767578125,116.675048828125,-246.06396484375,3,-373.75634765625,195.94873046875,-260.558349609375,-3.158523679646544,-8.57122402392535,-0.0,0.0,-0.27666666666666667,0.19,-0.034444444444444444,6.8,2.15,8.53,11.665704512
1671151705.0434527,0,-449.1109619140625,195.806884765625,13.11376953125,1,-767.870849609375,115.482177734375,-194.528076171875,2,-753.7188720703125,116.47265625,-246.708984375,3,-375.509033203125,196.132568359375,-260.83984375,-3.158523679646544,-8.57122402392535,-0.0,0.0,-0.27666666666666667,0.19,-0.034444444444444444,6.8,2.15,8.53,11.665704512
1671151705.0534937,0,-450.2493896484375,195.792724609375,12.83837890625,1,-768.9388427734375,115.35302734375,-195.125,2,-754.7119140625,116.30419921875,-247.21337890625,3,-376.42254638671875,196.005859375,-260.998046875,-3.158523679646544,-8.57122402392535,-0.0,0.0,-0.27666666666666667,0.19,-0.034444444444444444,6.8,2.15,8.53,11.665704512
1671151705.0634806,0,-451.39599609375,195.568603515625,12.585693359375,1,-769.891357421875,115.287353515625,-195.68115234375,2,-755.7242431640625,116.337646484375,-247.8154296875,3,-377.02301025390625,195.926025390625,-261.18603515625,-3.158523679646544,-8.57122402392535,-0.0,0.0,-0.27666666666666667,0.19,-0.034444444444444444,6.8,2.15,8.53,11.665704512
1671151705.073452,0,-452.51373291015625,195.6435546875,12.55419921875,1,-770.6246337890625,115.389892578125,-196.138427734375,2,-756.3526611328125,116.325927734375,-248.202392578125,3,-377.49151611328125,196.061767578125,-261.27978515625,-3.158523679646544,-8.57122402392535,-0.0,0.0,-0.27666666666666667,0.19,-0.034444444444444444,6.8,2.15,8.53,11.665704512
1671151705.0835357,0,-452.74078369140625,195.690185546875,12.49560546875,1,-770.8157958984375,115.261474609375,-196.503662109375,2,-756.5886840820312,116.213134765625,-248.512451171875,3,-377.856689453125,196.034423828125,-261.3095703125,-3.1694592998758337,-8.583982247526187,-0.0,0.0,-0.27555555555555555,0.20444444444444446,-0.11,3.02,1.95,11.26,11.695346336
1671151705.0934517,0,-453.045166015625,195.6953125,12.435302734375,1,-771.087646484375,115.309326171875,-196.733642578125,2,-756.68310546875,116.15869140625,-248.804931640625,3,-377.96417236328125,196.076904296875,-261.30224609375,-3.1694592998758337,-8.583982247526187,-0.0,0.0,-0.27555555555555555,0.20444444444444446,-0.11,3.02,1.95,11.26,11.695346336
1671151705.1034925,0,-453.16729736328125,195.580322265625,12.423828125,1,-770.9710693359375,115.262451171875,-196.89794921875,2,-756.689697265625,116.155029296875,-248.947509765625,3,-377.89617919921875,196.062744140625,-261.271240234375,-3.1694592998758337,-8.583982247526187,-0.0,0.0,-0.27555555555555555,0.20444444444444446,-0.11,3.02,1.95,11.26,11.695346336
1671151705.1134999,0,-453.00689697265625,195.56298828125,12.453857421875,1,-770.8095703125,115.268310546875,-196.897216796875,2,-756.541015625,116.14306640625,-248.967041015625,3,-377.6884765625,196.006103515625,-261.256591796875,-3.1761261911559706,-8.591656366985337,-0.0,0.0,0.0,-0.08333333333333333,-0.11555555555555555,0.83,1.71,10.0,11.662410976
1671151705.1234546,0,-452.727783203125,195.500244140625,12.541259765625,1,-770.783447265625,115.372314453125,-196.859130859375,2,-756.3613891601562,116.125732421875,-248.935791015625,3,-377.29852294921875,195.8681640625,-261.2333984375,-3.1761261911559706,-8.591656366985337,-0.0,0.0,0.0,-0.08333333333333333,-0.11555555555555555,0.83,1.71,10.0,11.662410976
1671151705.1335847,0,-452.5125732421875,195.5654296875,12.64697265625,1,-770.4559326171875,115.354248046875,-196.843017578125,2,-756.173583984375,116.1171875,-248.8759765625,3,-377.13128662109375,195.84521484375,-261.151611328125,-3.1761261911559706,-8.591656366985337,-0.0,0.0,0.0,-0.08333333333333333,-0.11555555555555555,0.83,1.71,10.0,11.662410976
1671151705.1435032,0,-452.308349609375,195.581298828125,12.6923828125,1,-770.346923828125,115.453369140625,-196.75830078125,2,-755.9546508789062,116.14013671875,-248.854736328125,3,-376.92291259765625,195.92724609375,-261.104736328125,-3.1761261911559706,-8.591656366985337,-0.0,0.0,0.0,-0.08333333333333333,-0.11555555555555555,0.83,1.71,10.0,11.662410976
1671151705.1534925,0,-452.09075927734375,195.525146484375,12.65576171875,1,-770.03857421875,115.400146484375,-196.754150390625,2,-755.7445068359375,116.046875,-248.826171875,3,-376.6756591796875,195.92529296875,-261.091552734375,-3.1761261911559706,-8.591656366985337,-0.0,0.0,0.0,-0.08333333333333333,-0.11555555555555555,0.83,1.71,10.0,11.662410976
1671151705.1635015,0,-451.880859375,195.54248046875,12.709228515625,1,-769.8170776367188,115.402099609375,-196.754638671875,2,-755.6041259765625,116.0751953125,-248.8330078125,3,-376.4755859375,195.95703125,-261.047119140625,-3.1761261911559706,-8.591656366985337,-0.0,0.0,0.0,-0.08333333333333333,-0.11555555555555555,0.83,1.71,10.0,11.662410976
1671151705.1734543,0,-451.70355224609375,195.5654296875,12.790283203125,1,-769.6453857421875,115.474365234375,-196.749755859375,2,-755.5115356445312,116.123779296875,-248.787353515625,3,-376.2646484375,195.97216796875,-260.963134765625,-3.1761261911559706,-8.591656366985337,-0.0,0.0,0.0,-0.08333333333333333,-0.11555555555555555,0.83,1.71,10.0,11.662410976
1671151705.1835806,0,-451.6307373046875,195.592041015625,12.902099609375,1,-769.5087890625,115.485595703125,-196.72216796875,2,-755.306396484375,116.0263671875,-248.747314453125,3,-376.06744384765625,195.94775390625,-260.891357421875,-3.1803469568585037,-8.591992109711677,2.1,-2.1,-0.011111111111111112,0.05555555555555555,-0.0077777777777777776,-0.79,2.24,9.78,11.685465728
1671151705.1934927,0,-451.55963134765625,195.571044921875,12.961181640625,1,-769.37890625,115.537353515625,-196.776123046875,2,-755.123291015625,116.057373046875,-248.75537109375,3,-375.9569091796875,195.993408203125,-260.849609375,-3.1803469568585037,-8.591992109711677,2.1,-2.1,-0.011111111111111112,0.05555555555555555,-0.0077777777777777776,-0.79,2.24,9.78,11.685465728
1671151705.2034945,0,-451.4273681640625,195.4462890625,12.945068359375,1,-769.1417236328125,115.5166015625,-196.817626953125,2,-754.977783203125,116.08203125,-248.81640625,3,-375.836669921875,195.952880859375,-260.885009765625,-3.1803469568585037,-8.591992109711677,2.1,-2.1,-0.011111111111111112,0.05555555555555555,-0.0077777777777777776,-0.79,2.24,9.78,11.685465728
1671151705.2134845,0,-451.342529296875,195.468994140625,12.965576171875,1,-769.1207275390625,115.563720703125,-196.7900390625,2,-755.0194091796875,116.188232421875,-248.781494140625,3,-375.802978515625,196.04296875,-260.8466796875,-3.1803469568585037,-8.591992109711677,2.1,-2.1,-0.011111111111111112,0.05555555555555555,-0.0077777777777777776,-0.79,2.24,9.78,11.685465728
1671151705.2235072,0,-451.32891845703125,195.448486328125,13.03662109375,1,-769.1560668945312,115.59619140625,-196.750244140625,2,-754.9061279296875,116.098388671875,-248.75537109375,3,-375.7720947265625,195.96630859375,-260.85400390625,-3.1803469568585037,-8.591992109711677,2.1,-2.1,-0.011111111111111112,0.05555555555555555,-0.0077777777777777776,-0.79,2.24,9.78,11.685465728
1671151705.2335677,0,-451.2503662109375,195.5361328125,13.001953125,1,-769.086669921875,115.577392578125,-196.65478515625,2,-754.8150634765625,116.0673828125,-248.713623046875,3,-375.71148681640625,195.90771484375,-260.857421875,-3.1797713978990676,-8.590793028546184,21.6,-21.6,-0.005555555555555556,0.008888888888888889,-0.016666666666666666,-0.25,2.0,9.76,11.675585120000001
1671151705.2435405,0,-451.28533935546875,195.41650390625,13.07177734375,1,-769.1727905273438,115.648193359375,-196.529541015625,2,-754.9783935546875,116.141845703125,-248.585205078125,3,-375.8465576171875,195.954833984375,-260.943603515625,-3.1797713978990676,-8.590793028546184,21.6,-21.6,-0.005555555555555556,0.008888888888888889,-0.016666666666666666,-0.25,2.0,9.76,11.675585120000001
