Time,Marker0_ID,Marker0_x,Marker0_y,Marker0_z,Marker1_ID,Marker1_x,Marker1_y,Marker1_z,Marker2_ID,Marker2_x,Marker2_y,Marker2_z,Marker3_ID,Marker3_x,Marker3_y,Marker3_z,thetaR,thetaL,dutyR,dutyL,wx,wy,wz,ax,ay,az,Vbatt
1671150902.8471365,0,0,0,0,0,0,0,0,0,0,0,0,0,0,0,0,0,0,0,0,0,0,0,0,0,0,0
1671150902.8572485,0,-145.48870849609375,196.65185546875,78.978759765625,1,-28.716064453125,117.8505859375,-288.12841796875,2,25.341796875,118.65625,-289.46044921875,3,136.8792724609375,196.4345703125,78.342041015625,0,0,0,0,0,0,0,0,0,0,0
1671150902.867192,0,-145.53521728515625,196.583251953125,78.974853515625,1,-28.71685791015625,117.795166015625,-288.1025390625,2,25.365966796875,118.680908203125,-289.4296875,3,136.81298828125,196.48974609375,78.322265625,0,0,0,0,0,0,0,0,0,0,0
1671150902.8772237,0,-145.68646240234375,196.633544921875,78.967041015625,1,-28.7843017578125,117.867919921875,-288.119140625,2,25.4765625,118.610107421875,-289.513671875,3,136.8172607421875,196.454833984375,78.362548828125,0,0,0,0,0,0,0,0,0,0,0
1671150902.8872128,0,-145.56146240234375,196.64208984375,78.99853515625,1,-28.71258544921875,117.8330078125,-288.126220703125,2,25.392333984375,118.619384765625,-289.435302734375,3,136.84814453125,196.419189453125,78.369384765625,0,0,0,0,0,0,0,0,0,0,0
1671150902.8972273,0,-145.5198974609375,196.60205078125,78.982666015625,1,-28.601318359375,117.791015625,-288.172119140625,2,25.438720703125,118.608154296875,-289.462646484375,3,136.8525390625,196.49755859375,78.3359375,0,0,0,0,0,0,0,0,0,0,0
1671150902.9072118,0,-145.55999755859375,196.6826171875,78.956787109375,1,-28.6854248046875,117.81787109375,-288.147705078125,2,25.462890625,118.581787109375,-289.486083984375,3,136.88525390625,196.452392578125,78.354248046875,0,0,0,0,0,0,0,0,0,0,0
1671150902.917191,0,-145.51446533203125,196.641357421875,78.952880859375,1,-28.71234130859375,117.77099609375,-288.092041015625,2,25.2689208984375,118.556396484375,-289.396240234375,3,136.8470458984375,196.4912109375,78.328857421875,0,0,0,0,0,0,0,0,0,0,0
1671150902.927253,0,-145.50665283203125,196.60546875,78.98486328125,1,-28.67254638671875,117.80908203125,-288.1376953125,2,25.4453125,118.56201171875,-289.424560546875,3,136.8558349609375,196.447265625,78.32958984375,0,0,0,0,0,0,0,0,0,0,0
1671150902.937215,0,-145.4979248046875,196.5888671875,79.022705078125,1,-28.74163818359375,117.8134765625,-288.095703125,2,25.337890625,118.582763671875,-289.40087890625,3,136.819091796875,196.463134765625,78.321533203125,0.0,0.0,0.0,0.0,0.0,-0.0,-0.0011111111111111111,-0.21,1.85,9.64,11.813913632
1671150902.94721,0,-145.56634521484375,196.595703125,78.94384765625,1,-28.69854736328125,117.796630859375,-288.131591796875,2,25.430908203125,118.59375,-289.457763671875,3,136.8568115234375,196.474365234375,78.3427734375,0.0,0.0,0.0,0.0,0.0,-0.0,-0.0011111111111111111,-0.21,1.85,9.64,11.813913632
1671150902.9572177,0,-145.55364990234375,196.60888671875,79.00830078125,1,-28.69805908203125,117.777099609375,-288.110107421875,2,25.457763671875,118.585205078125,-289.438720703125,3,136.8619384765625,196.466064453125,78.35888671875,0.0,0.0,0.0,0.0,0.0,-0.0,-0.0011111111111111111,-0.21,1.85,9.64,11.813913632
1671150902.9672487,0,-145.51422119140625,196.646728515625,78.955810546875,1,-28.6546630859375,117.731689453125,-288.10400390625,2,25.333251953125,118.595458984375,-289.42041015625,3,136.8880615234375,196.49853515625,78.33642578125,0.0,0.0,0.0,0.0,-0.2833333333333333,-0.0011111111111111111,-0.0,-0.21,1.85,9.63,11.813913632
1671150902.9772797,0,-145.57525634765625,196.611572265625,79.0009765625,1,-28.70831298828125,117.807861328125,-288.130859375,2,25.327880859375,118.66015625,-289.454833984375,3,136.8201904296875,196.418212890625,78.349609375,0.0,0.0,0.0,0.0,-0.2833333333333333,-0.0011111111111111111,-0.0,-0.21,1.85,9.63,11.813913632
1671150902.9872289,0,-145.51446533203125,196.634033203125,79.001708984375,1,-28.64825439453125,117.78857421875,-288.134765625,2,25.365234375,118.63916015625,-289.4443359375,3,136.855712890625,196.397216796875,78.343994140625,0.0,0.0,0.0,0.0,-0.2833333333333333,-0.0011111111111111111,-0.0,-0.21,1.85,9.63,11.813913632
1671150902.9972312,0,-145.54901123046875,196.62841796875,78.955078125,1,-28.75927734375,117.87158203125,-288.095703125,2,25.483154296875,118.554443359375,-289.492919921875,3,136.9388427734375,196.426025390625,78.34619140625,0.0,0.0,0.0,0.0,-0.2833333333333333,-0.0011111111111111111,-0.0,-0.21,1.85,9.63,11.813913632
1671150903.0072377,0,-145.51123046875,196.680908203125,78.9794921875,1,-28.58868408203125,117.75830078125,-288.16064453125,2,25.513916015625,118.56787109375,-289.5078125,3,136.8621826171875,196.459716796875,78.348388671875,0.0,0.0,0.0,0.0,-0.2833333333333333,-0.0011111111111111111,-0.0,-0.21,1.85,9.63,11.813913632
1671150903.0172334,0,-145.49615478515625,196.64111328125,78.946533203125,1,-28.69866943359375,117.773681640625,-288.09765625,2,25.372314453125,118.6376953125,-289.456298828125,3,136.9132080078125,196.453857421875,78.35693359375,0.0,0.0,0.0,0.0,-0.2833333333333333,-0.0011111111111111111,-0.0,-0.21,1.85,9.63,11.813913632
1671150903.027289,0,-145.57562255859375,196.68603515625,78.9765625,1,-28.708984375,117.830078125,-288.11328125,2,25.3443603515625,118.64794921875,-289.4287109375,3,136.8668212890625,196.388427734375,78.360595703125,0.0,0.0,0.0,0.0,0.0,-0.0,-0.0,-0.2,1.85,9.71,11.794152416000001
1671150903.037244,0,-145.5213623046875,196.701171875,78.978271484375,1,-28.70306396484375,117.85986328125,-288.122314453125,2,25.34619140625,118.620849609375,-289.45166015625,3,136.869873046875,196.41943359375,78.348876953125,0.0,0.0,0.0,0.0,0.0,-0.0,-0.0,-0.2,1.85,9.71,11.794152416000001
1671150903.0472267,0,-145.4774169921875,196.666748046875,78.937744140625,1,-28.68121337890625,117.851318359375,-288.13134765625,2,25.3577880859375,118.643310546875,-289.468994140625,3,136.875244140625,196.44677734375,78.3544921875,0.0,0.0,0.0,0.0,0.0,-0.0,-0.0,-0.2,1.85,9.71,11.794152416000001
1671150903.0572124,0,-145.54132080078125,196.677001953125,78.965576171875,1,-28.59722900390625,117.795166015625,-288.170166015625,2,25.3851318359375,118.612060546875,-289.458740234375,3,136.8583984375,196.424560546875,78.35791015625,0.0,0.0,0.0,0.0,0.0,-0.0,-0.0,-0.2,1.85,9.71,11.794152416000001
1671150903.0671961,0,-145.49053955078125,196.654541015625,78.922119140625,1,-28.66064453125,117.74267578125,-288.1103515625,2,25.325439453125,118.615478515625,-289.429443359375,3,136.845458984375,196.4423828125,78.36181640625,0.0,0.0,0.0,0.0,0.0,-0.0,-0.0,-0.2,1.85,9.71,11.794152416000001
1671150903.0772617,0,-145.521240234375,196.67529296875,78.973876953125,1,-28.59942626953125,117.774658203125,-288.131591796875,2,25.450927734375,118.601318359375,-289.47119140625,3,136.8409423828125,196.406005859375,78.35009765625,0.0,0.0,0.0,0.0,0.0,-0.0,-0.0,-0.2,1.85,9.71,11.794152416000001
1671150903.0872796,0,-145.496826171875,196.7001953125,78.967041015625,1,-28.73046875,117.875732421875,-288.135498046875,2,25.3408203125,118.614990234375,-289.416015625,3,136.833740234375,196.406494140625,78.353759765625,0.0,0.0,0.0,0.0,0.0,-0.0,-0.0,-0.2,1.85,9.71,11.794152416000001
1671150903.0972831,0,-145.53997802734375,196.63037109375,78.972412109375,1,-28.63751220703125,117.802490234375,-288.1396484375,2,25.350830078125,118.6318359375,-289.440673828125,3,136.892578125,196.4912109375,78.380859375,0.0,0.0,0.0,0.0,0.0,-0.0,-0.0,-0.2,1.85,9.71,11.794152416000001
1671150903.1072514,0,-145.565185546875,196.62548828125,78.974853515625,1,-28.68890380859375,117.816162109375,-288.135498046875,2,25.330810546875,118.681884765625,-289.489013671875,3,136.886962890625,196.4599609375,78.34130859375,0.0,0.0,0.0,0.0,0.0,-0.005555555555555556,-0.0,-0.2,1.85,9.59,11.800739488
1671150903.1172276,0,-145.5596923828125,196.6103515625,78.97705078125,1,-28.66876220703125,117.760986328125,-288.126708984375,2,25.2498779296875,118.69384765625,-289.430419921875,3,136.833984375,196.521484375,78.38134765625,0.0,0.0,0.0,0.0,0.0,-0.005555555555555556,-0.0,-0.2,1.85,9.59,11.800739488
1671150903.1272264,0,-145.5372314453125,196.684326171875,78.984130859375,1,-28.750244140625,117.879150390625,-288.10693359375,2,25.3455810546875,118.690673828125,-289.468994140625,3,136.810791015625,196.409423828125,78.3447265625,0.0,0.0,0.0,0.0,0.0,-0.005555555555555556,-0.0,-0.2,1.85,9.59,11.800739488
1671150903.13723,0,-145.532958984375,196.66162109375,78.9921875,1,-28.6962890625,117.876708984375,-288.095458984375,2,25.2283935546875,118.74658203125,-289.404052734375,3,136.87744140625,196.379150390625,78.328857421875,0.0,0.0,0.0,0.0,0.0,-0.005555555555555556,-0.0,-0.2,1.85,9.59,11.800739488
1671150903.147241,0,-145.5108642578125,196.616943359375,78.9755859375,1,-28.5794677734375,117.740478515625,-288.12890625,2,25.3314208984375,118.71337890625,-289.471435546875,3,136.90283203125,196.43310546875,78.361083984375,0.0,0.0,0.0,0.0,0.0,-0.005555555555555556,-0.0,-0.2,1.85,9.59,11.800739488
1671150903.1572344,0,-145.542236328125,196.631103515625,78.98291015625,1,-28.730224609375,117.87255859375,-288.142822265625,2,25.3502197265625,118.69970703125,-289.4677734375,3,136.8502197265625,196.509033203125,78.3505859375,0.0,0.0,0.0,0.0,-0.0011111111111111111,-0.0033333333333333335,-0.0022222222222222222,-0.22,1.85,9.73,11.817207168000001
1671150903.1672232,0,-145.48956298828125,196.619140625,78.94873046875,1,-28.670166015625,117.740478515625,-288.0966796875,2,25.30517578125,118.70703125,-289.46337890625,3,136.85595703125,196.4755859375,78.34326171875,0.0,0.0,0.0,0.0,-0.0011111111111111111,-0.0,-0.0011111111111111111,-0.22,1.85,9.63,11.794152416000001
1671150903.1772487,0,-145.56964111328125,196.59228515625,78.98486328125,1,-28.7222900390625,117.845703125,-288.1533203125,2,25.3587646484375,118.638427734375,-289.477783203125,3,136.854248046875,196.411865234375,78.338134765625,0.0,0.0,0.0,0.0,-0.0011111111111111111,-0.0,-0.0011111111111111111,-0.22,1.85,9.63,11.794152416000001
1671150903.1872134,0,-145.5091552734375,196.658203125,78.98828125,1,-28.58990478515625,117.76708984375,-288.136962890625,2,25.3543701171875,118.768798828125,-289.525390625,3,136.7835693359375,196.443115234375,78.31103515625,0.0,0.0,0.0,0.0,-0.0011111111111111111,-0.0,-0.0011111111111111111,-0.22,1.85,9.63,11.794152416000001
1671150903.1972334,0,-145.490234375,196.599609375,78.99609375,1,-28.60491943359375,117.759521484375,-288.154296875,2,25.40380859375,118.7158203125,-289.4619140625,3,136.91162109375,196.486328125,78.371826171875,0.0,0.0,0.0,0.0,-0.0011111111111111111,-0.0,-0.0011111111111111111,-0.22,1.85,9.63,11.794152416000001
1671150903.2072275,0,-145.54754638671875,196.633056640625,78.9931640625,1,-28.70660400390625,117.793212890625,-288.124267578125,2,25.3662109375,118.658935546875,-289.438720703125,3,136.853759765625,196.5,78.3642578125,0.0,0.0,0.0,0.0,-0.0011111111111111111,-0.0,-0.0011111111111111111,-0.22,1.85,9.63,11.794152416000001
1671150903.2172313,0,-145.45989990234375,196.7021484375,78.956787109375,1,-28.70941162109375,117.7783203125,-288.0947265625,2,25.266357421875,118.662841796875,-289.384033203125,3,136.8856201171875,196.4775390625,78.359619140625,0.0,0.0,0.0,0.0,-0.0011111111111111111,-0.0,-0.0011111111111111111,-0.22,1.85,9.63,11.794152416000001
1671150903.2272258,0,-145.5079345703125,196.689208984375,78.970947265625,1,-28.700927734375,117.84814453125,-288.1748046875,2,25.3701171875,118.651611328125,-289.44287109375,3,136.886474609375,196.50927734375,78.26611328125,0.0,0.0,0.0,0.0,0.0,0.0022222222222222222,0.0011111111111111111,-0.19,1.85,9.6,11.817207168000001
1671150903.237226,0,-145.5186767578125,196.663330078125,78.978271484375,1,-28.56781005859375,117.761962890625,-288.180908203125,2,25.2869873046875,118.67041015625,-289.40576171875,3,136.84326171875,196.406494140625,78.344482421875,0.0,0.0,0.0,0.0,0.0,0.0022222222222222222,0.0011111111111111111,-0.19,1.85,9.6,11.817207168000001
1671150903.247259,0,-145.46673583984375,196.641845703125,78.948486328125,1,-28.79052734375,117.91357421875,-288.130859375,2,25.3985595703125,118.6474609375,-289.47998046875,3,136.8184814453125,196.481689453125,78.356201171875,0.0,0.0,0.0,0.0,0.0,0.0022222222222222222,0.0011111111111111111,-0.19,1.85,9.6,11.817207168000001
1671150903.2572546,0,-145.49957275390625,196.641845703125,78.990966796875,1,-28.705078125,117.82763671875,-288.130859375,2,25.3642578125,118.66162109375,-289.454833984375,3,136.8157958984375,196.43115234375,78.378173828125,0.0,0.0,0.0,0.0,0.0,0.0022222222222222222,0.0011111111111111111,-0.19,1.85,9.6,11.817207168000001
1671150903.267236,0,-145.42938232421875,196.5986328125,79.00244140625,1,-28.6318359375,117.724853515625,-288.116943359375,2,25.279052734375,118.66796875,-289.4521484375,3,136.9044189453125,196.514892578125,78.32080078125,0.0,0.0,0.0,0.0,0.0,0.0022222222222222222,0.0011111111111111111,-0.19,1.85,9.6,11.817207168000001
1671150903.2772713,0,-145.43463134765625,196.65380859375,79.008544921875,1,-28.5897216796875,117.767578125,-288.144775390625,2,25.3570556640625,118.662353515625,-289.47412109375,3,136.842529296875,196.39013671875,78.3369140625,0.0,0.0,0.0,0.0,-0.0011111111111111111,0.28444444444444444,-0.0011111111111111111,-0.19,1.86,9.69,11.810620096000001
1671150903.287225,0,-145.45062255859375,196.579345703125,79.00390625,1,-28.72705078125,117.875732421875,-288.15771484375,2,25.3568115234375,118.606201171875,-289.41357421875,3,136.8328857421875,196.372802734375,78.367919921875,0.0,0.0,0.0,0.0,-0.0011111111111111111,0.28444444444444444,-0.0011111111111111111,-0.19,1.86,9.69,11.810620096000001
1671150903.2972379,0,-145.4725341796875,196.58740234375,78.997802734375,1,-28.68402099609375,117.815673828125,-288.130615234375,2,25.453857421875,118.599853515625,-289.482421875,3,136.8575439453125,196.466796875,78.349365234375,0.0,0.0,0.0,0.0,-0.0011111111111111111,0.28444444444444444,-0.0011111111111111111,-0.19,1.86,9.69,11.810620096000001
1671150903.307227,0,-145.4842529296875,196.699951171875,78.9716796875,1,-28.70001220703125,117.805908203125,-288.1162109375,2,25.32080078125,118.6552734375,-289.45068359375,3,136.8612060546875,196.46923828125,78.344970703125,0.0,0.0,0.0,0.0,-0.0011111111111111111,0.28444444444444444,-0.0011111111111111111,-0.19,1.86,9.69,11.810620096000001
1671150903.3172286,0,-145.46893310546875,196.577880859375,78.992919921875,1,-28.6829833984375,117.7587890625,-288.10009765625,2,25.324951171875,118.592041015625,-289.447021484375,3,136.8460693359375,196.503662109375,78.3330078125,0.0,0.0,0.0,0.0,-0.0011111111111111111,0.28444444444444444,-0.0011111111111111111,-0.19,1.86,9.69,11.810620096000001
1671150903.327225,0,-145.50238037109375,196.6337890625,79.013916015625,1,-28.66204833984375,117.824462890625,-288.1376953125,2,25.469970703125,118.58544921875,-289.486083984375,3,136.8553466796875,196.411376953125,78.320068359375,0.0,0.0,0.0,0.0,0.0,0.0011111111111111111,0.28444444444444444,-0.22,1.87,9.61,11.794152416000001
1671150903.3372312,0,-145.53759765625,196.654296875,78.997314453125,1,-28.67437744140625,117.79931640625,-288.140625,2,25.392333984375,118.72119140625,-289.436279296875,3,136.832275390625,196.44580078125,78.367919921875,0.0,0.0,0.0,0.0,0.0,0.0011111111111111111,0.28444444444444444,-0.22,1.87,9.61,11.794152416000001
1671150903.3472333,0,-145.504150390625,196.583251953125,78.9765625,1,-28.7957763671875,117.909912109375,-288.132080078125,2,25.44189453125,118.5888671875,-289.434814453125,3,136.8890380859375,196.45703125,78.38134765625,0.0,0.0,0.0,0.0,0.0,0.0011111111111111111,0.28444444444444444,-0.22,1.87,9.61,11.794152416000001
1671150903.3573322,0,-145.53839111328125,196.625732421875,78.979736328125,1,-28.72210693359375,117.8505859375,-288.150146484375,2,25.3961181640625,118.65966796875,-289.474853515625,3,136.8699951171875,196.4365234375,78.380126953125,0.0,0.0,0.0,0.0,0.0,0.0011111111111111111,0.28444444444444444,-0.22,1.87,9.61,11.794152416000001
1671150903.3672333,0,-145.48602294921875,196.618896484375,78.96826171875,1,-28.7532958984375,117.79833984375,-288.109375,2,25.3828125,118.623779296875,-289.46923828125,3,136.9652099609375,196.41552734375,78.32666015625,0.0,0.0,0.0,0.0,0.0,0.0011111111111111111,0.28444444444444444,-0.22,1.87,9.61,11.794152416000001
1671150903.3772461,0,-145.4818115234375,196.676513671875,78.967529296875,1,-28.82147216796875,117.8828125,-288.15625,2,25.44873046875,118.60205078125,-289.489013671875,3,136.8212890625,196.43505859375,78.318359375,0.0,0.0,0.0,0.0,-0.0022222222222222222,0.0033333333333333335,-0.0033333333333333335,-0.2,1.85,9.61,11.80732656
1671150903.3872118,0,-145.460693359375,196.661865234375,78.99609375,1,-28.65277099609375,117.801513671875,-288.146484375,2,25.3707275390625,118.625244140625,-289.4521484375,3,136.78564453125,196.412353515625,78.326904296875,0.0,0.0,0.0,0.0,-0.0022222222222222222,0.0033333333333333335,-0.0033333333333333335,-0.2,1.85,9.61,11.80732656
1671150903.3972318,0,-145.43487548828125,196.624267578125,78.9765625,1,-28.81591796875,117.884765625,-288.10986328125,2,25.350830078125,118.65283203125,-289.4814453125,3,136.873779296875,196.478759765625,78.344482421875,0.0,0.0,0.0,0.0,-0.0022222222222222222,0.0033333333333333335,-0.0033333333333333335,-0.2,1.85,9.61,11.80732656
1671150903.4072266,0,-145.50482177734375,196.653076171875,78.992919921875,1,-28.56414794921875,117.7724609375,-288.1591796875,2,25.425537109375,118.63037109375,-289.490966796875,3,136.875,196.480224609375,78.328125,0.0,0.0,0.0,0.0,-0.0022222222222222222,0.0033333333333333335,-0.0033333333333333335,-0.2,1.85,9.61,11.80732656
1671150903.417226,0,-145.4766845703125,196.646484375,78.976806640625,1,-28.651123046875,117.75634765625,-288.138671875,2,25.3646240234375,118.661865234375,-289.478271484375,3,136.89599609375,196.40771484375,78.380859375,0.0,0.0,0.0,0.0,-0.0022222222222222222,-0.0011111111111111111,-0.0022222222222222222,-0.2,1.84,9.58,11.810620096000001
1671150903.4272537,0,-145.5272216796875,196.66845703125,78.992431640625,1,-28.70574951171875,117.847900390625,-288.11572265625,2,25.41455078125,118.687744140625,-289.4775390625,3,136.8470458984375,196.396240234375,78.350341796875,0.0,0.0,0.0,0.0,-0.0022222222222222222,-0.0011111111111111111,-0.0022222222222222222,-0.2,1.84,9.58,11.810620096000001
1671150903.4372258,0,-145.53582763671875,196.65576171875,79.009033203125,1,-28.70013427734375,117.818115234375,-288.122802734375,2,25.364990234375,118.6552734375,-289.43994140625,3,136.8101806640625,196.428466796875,78.34716796875,0.0,0.0,0.0,0.0,-0.0022222222222222222,-0.0011111111111111111,-0.0022222222222222222,-0.2,1.84,9.58,11.810620096000001
1671150903.4472375,0,-145.52471923828125,196.60205078125,78.979248046875,1,-28.63775634765625,117.7724609375,-288.130859375,2,25.390380859375,118.638671875,-289.4755859375,3,136.82568359375,196.467041015625,78.364501953125,0.0,0.0,0.0,0.0,-0.0022222222222222222,-0.0011111111111111111,-0.0022222222222222222,-0.2,1.84,9.58,11.810620096000001
1671150903.4572258,0,-145.553466796875,196.6298828125,78.98583984375,1,-28.65045166015625,117.7783203125,-288.132080078125,2,25.3536376953125,118.656005859375,-289.483642578125,3,136.86962890625,196.469482421875,78.361572265625,0.0,0.0,0.0,0.0,-0.0022222222222222222,-0.0011111111111111111,-0.0022222222222222222,-0.2,1.84,9.58,11.810620096000001
1671150903.4672272,0,-145.53155517578125,196.601318359375,78.990234375,1,-28.586669921875,117.694580078125,-288.122314453125,2,25.2772216796875,118.707275390625,-289.4716796875,3,136.9708251953125,196.443359375,78.331787109375,0.0,0.0,0.0,0.0,-0.0022222222222222222,-0.0011111111111111111,-0.0022222222222222222,-0.2,1.84,9.58,11.810620096000001
1671150903.4772098,0,0.0,0.0,0.0,1,0.0,0.0,0.0,2,0.0,0.0,0.0,3,0.0,0.0,0.0,0.0,0.0,0.0,0.0,0.0011111111111111111,-0.0011111111111111111,-0.0011111111111111111,-0.19,1.84,9.64,11.797445952
1671150903.4871979,0,0.0,0.0,0.0,1,0.0,0.0,0.0,2,0.0,0.0,0.0,3,0.0,0.0,0.0,0.0,0.0,0.0,0.0,0.0011111111111111111,-0.0011111111111111111,-0.0011111111111111111,-0.19,1.84,9.64,11.797445952
1671150903.4972537,0,-145.27117919921875,196.781005859375,78.937744140625,1,-28.14453125,118.450439453125,-288.533447265625,2,25.4066162109375,118.5849609375,-289.459228515625,3,136.91845703125,196.50146484375,78.34912109375,0.0,0.0,0.0,0.0,0.0011111111111111111,-0.0011111111111111111,-0.0011111111111111111,-0.19,1.84,9.64,11.797445952
1671150903.5072274,0,-145.46307373046875,196.793701171875,78.916259765625,1,-28.2235107421875,118.312744140625,-288.47802734375,2,25.3846435546875,118.58837890625,-289.4052734375,3,136.87841796875,196.440185546875,78.3515625,0.0,0.0,0.0,0.0,0.0011111111111111111,-0.0011111111111111111,-0.0011111111111111111,-0.19,1.84,9.64,11.797445952
1671150903.5172253,0,-145.4317626953125,196.720458984375,78.9228515625,1,-28.23480224609375,118.239501953125,-288.4541015625,2,25.2978515625,118.641845703125,-289.3671875,3,136.9244384765625,196.45068359375,78.357177734375,0.0,0.0,0.0,0.0,0.0,-0.0011111111111111111,-0.0,-0.21,1.86,9.63,11.794152416000001
1671150903.5272653,0,-145.438232421875,196.733154296875,78.961669921875,1,-28.1868896484375,118.255859375,-288.498046875,2,25.412109375,118.58251953125,-289.43798828125,3,136.8206787109375,196.420166015625,78.34326171875,0.0,0.0,0.0,0.0,0.0,-0.0011111111111111111,-0.0,-0.21,1.86,9.63,11.794152416000001
1671150903.5372248,0,-145.47381591796875,196.77099609375,78.960693359375,1,-28.25030517578125,118.261962890625,-288.4580078125,2,25.276611328125,118.64990234375,-289.36962890625,3,136.8468017578125,196.423828125,78.337646484375,0.0,0.0,0.0,0.0,0.0,-0.0011111111111111111,-0.0,-0.21,1.86,9.63,11.794152416000001
1671150903.5472414,0,-145.48858642578125,196.72705078125,78.93603515625,1,-28.3636474609375,118.35888671875,-288.436767578125,2,25.3477783203125,118.634033203125,-289.40283203125,3,136.8397216796875,196.4296875,78.39111328125,0.0,0.0,0.0,0.0,0.0,-0.0011111111111111111,-0.0,-0.21,1.86,9.63,11.794152416000001
1671150903.5572352,0,-145.52166748046875,196.744140625,78.94482421875,1,-28.3133544921875,118.27294921875,-288.42138671875,2,25.4241943359375,118.62646484375,-289.427001953125,3,136.8125,196.46923828125,78.38525390625,0.0,0.0,0.0,0.0,0.0,-0.0011111111111111111,-0.0,-0.21,1.86,9.63,11.794152416000001
1671150903.5671914,0,-145.44439697265625,196.728271484375,78.935791015625,1,-28.2919921875,118.24609375,-288.3818359375,2,25.3040771484375,118.67333984375,-289.38623046875,3,136.8912353515625,196.430908203125,78.33203125,0.0,0.0,0.0,0.0,0.0,-0.0011111111111111111,-0.0,-0.21,1.86,9.63,11.794152416000001
1671150903.5772114,0,-145.484619140625,196.692626953125,78.956298828125,1,-28.31610107421875,118.269775390625,-288.45947265625,2,25.460205078125,118.60205078125,-289.436279296875,3,136.8306884765625,196.45263671875,78.325927734375,0.0,0.0,0.0,0.0,0.0,-0.0022222222222222222,-0.0022222222222222222,-0.2,1.84,9.68,11.817207168000001
1671150903.5872118,0,-145.493408203125,196.7080078125,78.98095703125,1,-28.3289794921875,118.25048828125,-288.442138671875,2,25.32666015625,118.635009765625,-289.43408203125,3,136.81298828125,196.37744140625,78.384033203125,0.0,0.0,0.0,0.0,0.0,-0.0022222222222222222,-0.0022222222222222222,-0.2,1.84,9.68,11.817207168000001
1671150903.5972083,0,-145.431884765625,196.717529296875,78.92138671875,1,-28.331298828125,118.223876953125,-288.447265625,2,25.4410400390625,118.599853515625,-289.4775390625,3,136.87890625,196.424072265625,78.350830078125,0.0,0.0,0.0,0.0,0.0,-0.0022222222222222222,-0.0022222222222222222,-0.2,1.84,9.68,11.817207168000001
1671150903.607232,0,-145.5067138671875,196.7392578125,78.95361328125,1,-28.48040771484375,118.295654296875,-288.396728515625,2,25.439208984375,118.635498046875,-289.468017578125,3,136.851806640625,196.419921875,78.377685546875,0.0,0.0,0.0,0.0,0.0,-0.0022222222222222222,-0.0022222222222222222,-0.2,1.84,9.68,11.817207168000001
1671150903.617226,0,-145.47052001953125,196.684814453125,78.931884765625,1,-28.2979736328125,118.115234375,-288.361083984375,2,25.333984375,118.6484375,-289.447998046875,3,136.87109375,196.486083984375,78.3447265625,0.0,0.0,0.0,0.0,0.0,-0.0011111111111111111,0.0022222222222222222,-0.19,1.83,9.58,11.810620096000001
1671150903.6271963,0,-145.51873779296875,196.725341796875,78.960693359375,1,-28.20904541015625,118.115478515625,-288.48486328125,2,25.3756103515625,118.625,-289.457763671875,3,136.825927734375,196.4150390625,78.36474609375,0.0,0.0,0.0,0.0,0.0,-0.0011111111111111111,0.0022222222222222222,-0.19,1.83,9.58,11.810620096000001
1671150903.6372342,0,-145.5030517578125,196.7294921875,78.97119140625,1,-28.40106201171875,118.18505859375,-288.37939453125,2,25.2725830078125,118.669677734375,-289.41259765625,3,136.7923583984375,196.3779296875,78.348876953125,0.0,0.0,0.0,0.0,0.0,-0.0011111111111111111,0.0022222222222222222,-0.19,1.83,9.58,11.810620096000001
1671150903.6472516,0,-145.50457763671875,196.673583984375,78.913818359375,1,-28.3831787109375,118.11376953125,-288.351318359375,2,25.3658447265625,118.67431640625,-289.44189453125,3,136.857421875,196.481201171875,78.327880859375,0.0,0.0,0.0,0.0,0.0,-0.0011111111111111111,0.0022222222222222222,-0.19,1.83,9.58,11.810620096000001
1671150903.657239,0,-145.55535888671875,196.758056640625,78.9384765625,1,-28.4830322265625,118.21484375,-288.36572265625,2,25.453125,118.635986328125,-289.467041015625,3,136.878662109375,196.482177734375,78.3583984375,0.0,0.0,0.0,0.0,0.0,-0.0011111111111111111,0.0022222222222222222,-0.19,1.83,9.58,11.810620096000001
1671150903.6672244,0,-145.529052734375,196.692626953125,78.942626953125,1,-28.4173583984375,118.070556640625,-288.330810546875,2,25.37646484375,118.641845703125,-289.45556640625,3,136.849609375,196.449951171875,78.363037109375,0.0,0.0,0.0,0.0,0.0,-0.0011111111111111111,0.0022222222222222222,-0.19,1.83,9.58,11.810620096000001
1671150903.6772327,0,-145.5723876953125,196.754638671875,78.97607421875,1,-28.46429443359375,118.170166015625,-288.360595703125,2,25.400634765625,118.652587890625,-289.44775390625,3,136.8218994140625,196.416015625,78.347900390625,0.0,0.0,0.0,0.0,-0.0022222222222222222,-0.0011111111111111111,-0.0011111111111111111,-0.19,1.86,9.71,11.817207168000001
1671150903.6872115,0,-145.57330322265625,196.679931640625,78.971435546875,1,-28.3099365234375,118.0361328125,-288.327880859375,2,25.3565673828125,118.64306640625,-289.45703125,3,136.821533203125,196.400390625,78.344482421875,0.0,0.0,0.0,0.0,-0.0022222222222222222,-0.0011111111111111111,-0.0011111111111111111,-0.19,1.86,9.71,11.817207168000001
1671150903.6972368,0,-145.47271728515625,196.6650390625,78.958984375,1,-28.402099609375,118.0810546875,-288.351318359375,2,25.3436279296875,118.657958984375,-289.42822265625,3,136.859130859375,196.42333984375,78.37744140625,0.0,0.0,0.0,0.0,-0.0022222222222222222,-0.0011111111111111111,-0.0011111111111111111,-0.19,1.86,9.71,11.817207168000001
1671150903.707336,0,-145.51123046875,196.68017578125,78.9794921875,1,-28.51324462890625,118.01220703125,-288.285888671875,2,25.4447021484375,118.6044921875,-289.486328125,3,136.8734130859375,196.42529296875,78.336181640625,0.0,0.0,0.0,0.0,-0.0022222222222222222,-0.0011111111111111111,-0.0011111111111111111,-0.19,1.86,9.71,11.817207168000001
1671150903.7172325,0,-145.49371337890625,196.62255859375,78.9658203125,1,-28.44122314453125,117.985107421875,-288.2744140625,2,25.389404296875,118.652587890625,-289.465576171875,3,136.8597412109375,196.47705078125,78.35888671875,0.0,0.0,0.0,0.0,-0.0022222222222222222,-0.0,-0.0022222222222222222,-0.2,1.85,9.62,11.79085888
1671150903.7272484,0,-145.525146484375,196.670654296875,78.989013671875,1,-28.5059814453125,118.144775390625,-288.2744140625,2,25.478271484375,118.609130859375,-289.49560546875,3,136.874267578125,196.451171875,78.363037109375,0.0,0.0,0.0,0.0,-0.0022222222222222222,-0.0,-0.0022222222222222222,-0.2,1.85,9.62,11.79085888
1671150903.7372265,0,-145.51251220703125,196.675537109375,78.97998046875,1,-28.4505615234375,118.05908203125,-288.318359375,2,25.367919921875,118.64111328125,-289.444580078125,3,136.7847900390625,196.422119140625,78.37939453125,0.0,0.0,0.0,0.0,-0.0022222222222222222,-0.0,-0.0022222222222222222,-0.2,1.85,9.62,11.79085888
1671150903.7472415,0,-145.48486328125,196.573974609375,78.9677734375,1,-28.47503662109375,118.035888671875,-288.307861328125,2,25.44189453125,118.651123046875,-289.471923828125,3,136.81298828125,196.45947265625,78.4013671875,0.0,0.0,0.0,0.0,-0.0022222222222222222,-0.0,-0.0022222222222222222,-0.2,1.85,9.62,11.79085888
1671150903.7572289,0,-145.549072265625,196.688232421875,79.00048828125,1,-28.61590576171875,118.123046875,-288.240478515625,2,25.48583984375,118.61474609375,-289.50390625,3,136.869873046875,196.4814453125,78.335693359375,0.0,0.0,0.0,0.0,-0.0022222222222222222,-0.0,-0.0022222222222222222,-0.2,1.85,9.62,11.79085888
1671150903.7672296,0,-145.51483154296875,196.60302734375,78.9638671875,1,-28.52496337890625,117.995849609375,-288.253662109375,2,25.3450927734375,118.59326171875,-289.399169921875,3,136.880615234375,196.506103515625,78.323974609375,0.0,0.0,0.0,0.0,-0.0022222222222222222,-0.0,-0.0022222222222222222,-0.2,1.85,9.62,11.79085888
1671150903.7772255,0,-145.5740966796875,196.5869140625,78.981689453125,1,-28.482666015625,118.025390625,-288.26708984375,2,25.359619140625,118.625,-289.4580078125,3,136.8052978515625,196.390869140625,78.351318359375,0.0,0.0,0.0,0.0,-0.0033333333333333335,-0.0,-0.0022222222222222222,-0.21,1.83,9.71,11.804033024
1671150903.7871895,0,-145.5521240234375,196.679931640625,78.9990234375,1,-28.5987548828125,118.06884765625,-288.2568359375,2,25.359619140625,118.66552734375,-289.4609375,3,136.8277587890625,196.431640625,78.315185546875,0.0,0.0,0.0,0.0,-0.0033333333333333335,-0.0,-0.0022222222222222222,-0.21,1.83,9.71,11.804033024
1671150903.797229,0,-145.49261474609375,196.57763671875,78.97802734375,1,-28.49456787109375,117.9697265625,-288.275634765625,2,25.42333984375,118.638671875,-289.461669921875,3,136.92822265625,196.453369140625,78.351806640625,0.0,0.0,0.0,0.0,-0.0033333333333333335,-0.0,-0.0022222222222222222,-0.21,1.83,9.71,11.804033024
1671150903.8072484,0,-145.533935546875,196.60986328125,78.986083984375,1,-28.4815673828125,118.02294921875,-288.291748046875,2,25.4234619140625,118.641845703125,-289.462646484375,3,136.856201171875,196.43408203125,78.371826171875,0.0,0.0,0.0,0.0,-0.0033333333333333335,-0.0,-0.0022222222222222222,-0.21,1.83,9.71,11.804033024
1671150903.8172288,0,-145.52423095703125,196.597412109375,78.966796875,1,-28.56231689453125,117.954345703125,-288.24609375,2,25.33154296875,118.65673828125,-289.453369140625,3,136.8775634765625,196.457763671875,78.347900390625,0.0,0.0,0.0,0.0,-0.0011111111111111111,-0.0,0.0011111111111111111,-0.2,1.87,9.64,11.810620096000001
1671150903.8272307,0,-145.5635986328125,196.646240234375,79.001220703125,1,-28.60357666015625,118.022705078125,-288.26318359375,2,25.4576416015625,118.600830078125,-289.477294921875,3,136.846435546875,196.4287109375,78.34619140625,0.0,0.0,0.0,0.0,-0.0011111111111111111,-0.0,0.0011111111111111111,-0.2,1.87,9.64,11.810620096000001
1671150903.8372235,0,-145.54571533203125,196.62451171875,78.971923828125,1,-28.58392333984375,118.06005859375,-288.269287109375,2,25.3677978515625,118.615966796875,-289.41015625,3,136.818115234375,196.43701171875,78.337890625,0.0,0.0,0.0,0.0,-0.0011111111111111111,-0.0,0.0011111111111111111,-0.2,1.87,9.64,11.810620096000001
1671150903.8472242,0,-145.55419921875,196.56884765625,78.973388671875,1,-28.4881591796875,117.980224609375,-288.27685546875,2,25.4622802734375,118.64599609375,-289.4697265625,3,136.932373046875,196.46875,78.34326171875,0.0,0.0,0.0,0.0,-0.0011111111111111111,-0.0,0.0011111111111111111,-0.2,1.87,9.64,11.810620096000001
1671150903.8572428,0,-145.5599365234375,196.57275390625,79.0087890625,1,-28.46075439453125,117.9345703125,-288.280517578125,2,25.46875,118.631103515625,-289.504638671875,3,136.8404541015625,196.469482421875,78.336669921875,0.0,0.0,0.0,0.0,-0.0011111111111111111,-0.0,0.0011111111111111111,-0.2,1.87,9.64,11.810620096000001
1671150903.8672233,0,-145.548583984375,196.5546875,78.97216796875,1,-28.61676025390625,117.951416015625,-288.1748046875,2,25.341796875,118.668212890625,-289.456787109375,3,136.8939208984375,196.412841796875,78.37890625,0.0,0.0,0.0,0.0,0.0011111111111111111,-0.0011111111111111111,0.0011111111111111111,-0.2,1.85,9.61,11.817207168000001
1671150903.8772562,0,-145.53948974609375,196.63037109375,78.980712890625,1,-28.59674072265625,117.975341796875,-288.2255859375,2,25.3699951171875,118.650146484375,-289.42919921875,3,136.85107421875,196.42138671875,78.3271484375,0.0,0.0,0.0,0.0,0.0011111111111111111,-0.0011111111111111111,0.0011111111111111111,-0.2,1.85,9.61,11.817207168000001
1671150903.8871906,0,-145.56268310546875,196.63427734375,78.986328125,1,-28.56317138671875,117.9296875,-288.212646484375,2,25.3641357421875,118.665771484375,-289.476318359375,3,136.850830078125,196.42919921875,78.362548828125,0.0,0.0,0.0,0.0,0.0011111111111111111,-0.0011111111111111111,0.0011111111111111111,-0.2,1.85,9.61,11.817207168000001
1671150903.897235,0,-145.6007080078125,196.544677734375,78.9677734375,1,-28.64312744140625,117.97900390625,-288.17236328125,2,25.4324951171875,118.627685546875,-289.469970703125,3,136.9339599609375,196.458984375,78.3369140625,0.0,0.0,0.0,0.0,0.0011111111111111111,-0.0011111111111111111,0.0011111111111111111,-0.2,1.85,9.61,11.817207168000001
1671150903.9072442,0,-145.61724853515625,196.61767578125,78.990966796875,1,-28.590087890625,117.95751953125,-288.20556640625,2,25.4375,118.611572265625,-289.465087890625,3,136.9127197265625,196.466064453125,78.338134765625,0.0,0.0,0.0,0.0,0.0011111111111111111,-0.0011111111111111111,0.0011111111111111111,-0.2,1.85,9.61,11.817207168000001
1671150903.9172318,0,-145.5633544921875,196.56494140625,78.97412109375,1,-28.5771484375,117.859375,-288.157958984375,2,25.3685302734375,118.604736328125,-289.445068359375,3,136.868896484375,196.468505859375,78.355712890625,0.0,0.0,0.0,0.0,0.0,0.0011111111111111111,-0.0011111111111111111,-0.22,1.84,9.58,11.810620096000001
1671150903.9272335,0,-145.55450439453125,196.6220703125,78.98583984375,1,-28.5133056640625,117.880859375,-288.210205078125,2,25.4281005859375,118.678955078125,-289.479248046875,3,136.8436279296875,196.418701171875,78.335205078125,0.0,0.0,0.0,0.0,0.0,0.0011111111111111111,-0.0011111111111111111,-0.22,1.84,9.58,11.810620096000001
1671150903.9372344,0,-145.57916259765625,196.645751953125,78.97802734375,1,-28.7030029296875,117.935791015625,-288.1708984375,2,25.3521728515625,118.66796875,-289.452880859375,3,136.81689453125,196.451904296875,78.328857421875,0.0,0.0,0.0,0.0,0.0,0.0011111111111111111,-0.0011111111111111111,-0.22,1.84,9.58,11.810620096000001
1671150903.9472272,0,-145.56024169921875,196.580078125,78.974609375,1,-28.71624755859375,117.985595703125,-288.2080078125,2,25.353759765625,118.6572265625,-289.455810546875,3,136.87548828125,196.482666015625,78.329345703125,0.0,0.0,0.0,0.0,0.0,0.0011111111111111111,-0.0011111111111111111,-0.22,1.84,9.58,11.810620096000001
1671150903.9572241,0,-145.57476806640625,196.618896484375,78.99951171875,1,-28.66290283203125,117.9482421875,-288.191162109375,2,25.3448486328125,118.70556640625,-289.475830078125,3,136.888427734375,196.445556640625,78.330078125,0.0,0.0,0.0,0.0,0.0,0.0011111111111111111,-0.0011111111111111111,-0.22,1.84,9.58,11.810620096000001
1671150903.967227,0,-145.57427978515625,196.5771484375,78.96337890625,1,-28.61907958984375,117.82421875,-288.15380859375,2,25.25830078125,118.6806640625,-289.428955078125,3,136.8411865234375,196.47021484375,78.3720703125,0.0,0.0,0.0,0.0,0.0011111111111111111,0.0022222222222222222,0.0011111111111111111,-0.21,1.84,9.59,11.797445952
1671150903.9772184,0,-145.607421875,196.662841796875,78.991455078125,1,-28.59808349609375,117.8828125,-288.16796875,2,25.33837890625,118.64990234375,-289.48779296875,3,136.8477783203125,196.369384765625,78.35302734375,0.0,0.0,0.0,0.0,0.0011111111111111111,0.0022222222222222222,0.0011111111111111111,-0.21,1.84,9.59,11.797445952
1671150903.9872544,0,-145.58917236328125,196.643798828125,78.992431640625,1,-28.69219970703125,117.947265625,-288.17919921875,2,25.3294677734375,118.66943359375,-289.49072265625,3,136.846923828125,196.41552734375,78.310302734375,0.0,0.0,0.0,0.0,0.0011111111111111111,0.0022222222222222222,0.0011111111111111111,-0.21,1.84,9.59,11.797445952
1671150903.9972172,0,-145.6395263671875,196.609619140625,78.945068359375,1,-28.70526123046875,117.96533203125,-288.180419921875,2,25.4119873046875,118.651123046875,-289.46044921875,3,136.9149169921875,196.427490234375,78.35009765625,0.0,0.0,0.0,0.0,0.0011111111111111111,0.0022222222222222222,0.0011111111111111111,-0.21,1.84,9.59,11.797445952
1671150904.0072277,0,-145.65008544921875,196.63525390625,78.962158203125,1,-28.66424560546875,117.9169921875,-288.138916015625,2,25.481201171875,118.626220703125,-289.504638671875,3,136.8916015625,196.446044921875,78.335205078125,0.0,0.0,0.0,0.0,0.0011111111111111111,0.0022222222222222222,0.0011111111111111111,-0.21,1.84,9.59,11.797445952
1671150904.0172236,0,-145.54254150390625,196.54345703125,78.984619140625,1,-28.64013671875,117.819091796875,-288.12841796875,2,25.374267578125,118.6552734375,-289.455078125,3,136.91650390625,196.421142578125,78.353271484375,0.0,0.0,0.0,0.0,0.0011111111111111111,0.0022222222222222222,0.0011111111111111111,-0.21,1.84,9.59,11.797445952
1671150904.0272532,0,-145.5765380859375,196.572998046875,78.99853515625,1,-28.625732421875,117.867431640625,-288.1484375,2,25.46044921875,118.612548828125,-289.477294921875,3,136.8297119140625,196.412353515625,78.323486328125,0.0,0.0,0.0,0.0,-0.0011111111111111111,0.0011111111111111111,0.0011111111111111111,-0.21,1.85,9.64,11.820500704
1671150904.0373456,0,-145.5689697265625,196.60107421875,79.005859375,1,-28.62286376953125,117.868408203125,-288.14599609375,2,25.3592529296875,118.675048828125,-289.470947265625,3,136.85595703125,196.417236328125,78.3330078125,0.0,0.0,0.0,0.0,-0.0011111111111111111,0.0011111111111111111,0.0011111111111111111,-0.21,1.85,9.64,11.820500704
1671150904.0473292,0,-145.57000732421875,196.520263671875,78.97998046875,1,-28.6510009765625,117.899169921875,-288.141845703125,2,25.539306640625,118.67578125,-289.514404296875,3,136.8779296875,196.45263671875,78.4091796875,0.0,0.0,0.0,0.0,-0.0011111111111111111,0.0011111111111111111,0.0011111111111111111,-0.21,1.85,9.64,11.820500704
1671150904.0572245,0,-145.64801025390625,196.593994140625,78.986328125,1,-28.6966552734375,117.85595703125,-288.1572265625,2,25.336669921875,118.666748046875,-289.467529296875,3,136.881103515625,196.453125,78.373046875,0.0,0.0,0.0,0.0,-0.0011111111111111111,0.0011111111111111111,0.0011111111111111111,-0.21,1.85,9.64,11.820500704
1671150904.067213,0,-145.57232666015625,196.589599609375,78.985107421875,1,-28.6439208984375,117.792236328125,-288.1328125,2,25.3074951171875,118.669921875,-289.42822265625,3,136.788330078125,196.474365234375,78.337890625,0.0,0.0,0.0,0.0,-0.0011111111111111111,-0.0011111111111111111,-0.0,-0.2,1.86,9.6,11.813913632
1671150904.0772219,0,-145.59210205078125,196.614013671875,78.989990234375,1,-28.62249755859375,117.8212890625,-288.1455078125,2,25.3839111328125,118.63525390625,-289.43212890625,3,136.84326171875,196.384521484375,78.32861328125,0.0,0.0,0.0,0.0,-0.0011111111111111111,-0.0011111111111111111,-0.0,-0.2,1.86,9.6,11.813913632
1671150904.0872154,0,-145.62347412109375,196.612548828125,79.01513671875,1,-28.63134765625,117.812255859375,-288.168212890625,2,25.308837890625,118.67919921875,-289.4267578125,3,136.8446044921875,196.401611328125,78.34814453125,0.0,0.0,0.0,0.0,-0.0011111111111111111,-0.0011111111111111111,-0.0,-0.2,1.86,9.6,11.813913632
1671150904.0972176,0,-145.500732421875,196.574951171875,78.998291015625,1,-28.6661376953125,117.871826171875,-288.18017578125,2,25.3695068359375,118.674072265625,-289.453125,3,136.83203125,196.480712890625,78.38037109375,0.0,0.0,0.0,0.0,-0.0011111111111111111,-0.0011111111111111111,-0.0,-0.2,1.86,9.6,11.813913632
1671150904.1072345,0,-145.63372802734375,196.576171875,78.991943359375,1,-28.6619873046875,117.8525390625,-288.1416015625,2,25.34326171875,118.65625,-289.44677734375,3,136.8670654296875,196.5361328125,78.312744140625,0.0,0.0,0.0,0.0,-0.0011111111111111111,-0.0011111111111111111,-0.0,-0.2,1.86,9.6,11.813913632
1671150904.117266,0,-145.58428955078125,196.5986328125,78.9794921875,1,-28.62615966796875,117.8076171875,-288.159912109375,2,25.4278564453125,118.65478515625,-289.508544921875,3,136.8255615234375,196.5146484375,78.36572265625,0.0,0.0,0.0,0.0,-0.28444444444444444,-0.0022222222222222222,-0.0,-0.22,1.83,9.56,11.820500704
1671150904.1274016,0,-145.54913330078125,196.597412109375,79.000244140625,1,-28.56719970703125,117.78125,-288.174560546875,2,25.38818359375,118.66357421875,-289.502197265625,3,136.8505859375,196.3837890625,78.334716796875,0.0,0.0,0.0,0.0,-0.28444444444444444,-0.0022222222222222222,-0.0,-0.22,1.83,9.56,11.820500704
1671150904.1372879,0,-145.53515625,196.66064453125,79.01171875,1,-28.6751708984375,117.8505859375,-288.171630859375,2,25.3260498046875,118.630859375,-289.447998046875,3,136.8153076171875,196.443359375,78.326171875,0.0,0.0,0.0,0.0,-0.28444444444444444,-0.0022222222222222222,-0.0,-0.22,1.83,9.56,11.820500704
1671150904.1473448,0,-145.486572265625,196.671875,78.970947265625,1,-28.6414794921875,117.80859375,-288.1943359375,2,25.5054931640625,118.609130859375,-289.541015625,3,136.686279296875,196.342041015625,78.447021484375,0.0,0.0,0.0,0.0,-0.28444444444444444,-0.0022222222222222222,-0.0,-0.22,1.83,9.56,11.820500704
1671150904.157274,0,-145.496826171875,196.70947265625,78.973876953125,1,-28.7340087890625,117.882568359375,-288.141357421875,2,25.4417724609375,118.6396484375,-289.505126953125,3,136.831787109375,196.455078125,78.351806640625,0.0,0.0,0.0,0.0,-0.28444444444444444,-0.0022222222222222222,-0.0,-0.22,1.83,9.56,11.820500704
1671150904.1674216,0,-145.45001220703125,196.59765625,78.969482421875,1,-28.68865966796875,117.723388671875,-288.079345703125,2,25.3426513671875,118.680908203125,-289.49755859375,3,136.844482421875,196.40380859375,78.357421875,0.0,0.0,0.0,0.0,-0.28444444444444444,-0.0022222222222222222,-0.0,-0.22,1.83,9.56,11.820500704
1671150904.17729,0,-145.56884765625,196.6669921875,79.0087890625,1,-28.709228515625,117.87646484375,-288.138671875,2,25.39306640625,118.6298828125,-289.485595703125,3,136.82080078125,196.43603515625,78.359619140625,0.0,0.0,0.0,0.0,-0.0011111111111111111,-0.0011111111111111111,0.0011111111111111111,-0.19,1.85,9.65,11.813913632
1671150904.1873567,0,-145.58380126953125,196.624755859375,79.0,1,-28.64605712890625,117.81689453125,-288.164794921875,2,25.358154296875,118.6923828125,-289.44482421875,3,136.8267822265625,196.451416015625,78.3623046875,0.0,0.0,0.0,0.0,-0.0011111111111111111,-0.0011111111111111111,0.0011111111111111111,-0.19,1.85,9.65,11.813913632
1671150904.1973364,0,-145.56207275390625,196.586669921875,78.9599609375,1,-28.697265625,117.851318359375,-288.111328125,2,25.42578125,118.604736328125,-289.4677734375,3,136.90283203125,196.419921875,78.356201171875,0.0,0.0,0.0,0.0,-0.0011111111111111111,-0.0011111111111111111,0.0011111111111111111,-0.19,1.85,9.65,11.813913632
1671150904.2072964,0,-145.56170654296875,196.6337890625,78.98046875,1,-28.753173828125,117.890869140625,-288.144287109375,2,25.3421630859375,118.69921875,-289.455810546875,3,136.87060546875,196.441162109375,78.355224609375,0.0,0.0,0.0,0.0,-0.0011111111111111111,-0.0011111111111111111,0.0011111111111111111,-0.19,1.85,9.65,11.813913632
1671150904.2173495,0,-145.514892578125,196.526611328125,78.987548828125,1,-28.70361328125,117.778076171875,-288.088134765625,2,25.315185546875,118.634765625,-289.412109375,3,136.8409423828125,196.428955078125,78.35302734375,0.0,0.0,0.0,0.0,-0.0011111111111111111,-0.0011111111111111111,0.0011111111111111111,-0.19,1.85,9.65,11.813913632
1671150904.2273324,0,-145.4913330078125,196.62353515625,79.010498046875,1,-28.727783203125,117.84326171875,-288.119384765625,2,25.42529296875,118.64453125,-289.44482421875,3,136.8123779296875,196.414306640625,78.3349609375,0.0,0.0,0.0,0.0,0.0,-0.0,-0.0,-0.19,1.85,9.61,11.810620096000001
1671150904.2373366,0,-145.48077392578125,196.626220703125,79.00390625,1,-28.68829345703125,117.86181640625,-288.1396484375,2,25.2642822265625,118.693603515625,-289.435791015625,3,136.8607177734375,196.394287109375,78.3466796875,0.0,0.0,0.0,0.0,0.0,-0.0,-0.0,-0.19,1.85,9.61,11.810620096000001
1671150904.24718,0,-145.48291015625,196.56787109375,78.959228515625,1,-28.63616943359375,117.807373046875,-288.158935546875,2,25.35888671875,118.65380859375,-289.5,3,136.9525146484375,196.414306640625,78.37548828125,0.0,0.0,0.0,0.0,0.0,-0.0,-0.0,-0.19,1.85,9.61,11.810620096000001
1671150904.2572198,0,-145.6116943359375,196.6630859375,78.98681640625,1,-28.74359130859375,117.861572265625,-288.12255859375,2,25.403076171875,118.630126953125,-289.471435546875,3,136.894775390625,196.478759765625,78.356201171875,0.0,0.0,0.0,0.0,0.0,-0.0,-0.0,-0.19,1.85,9.61,11.810620096000001
1671150904.2672024,0,-145.51336669921875,196.5849609375,78.976806640625,1,-28.6536865234375,117.756103515625,-288.12841796875,2,25.36376953125,118.643798828125,-289.468994140625,3,136.940673828125,196.473876953125,78.35791015625,0.0,0.0,0.0,0.0,-0.0011111111111111111,0.0022222222222222222,-0.0,-0.21,1.86,9.59,11.794152416000001
1671150904.2772105,0,-145.54412841796875,196.59521484375,78.9990234375,1,-28.6363525390625,117.816162109375,-288.146484375,2,25.4354248046875,118.6533203125,-289.49169921875,3,136.8143310546875,196.420654296875,78.361572265625,0.0,0.0,0.0,0.0,-0.0011111111111111111,0.0022222222222222222,-0.0,-0.21,1.86,9.59,11.794152416000001
1671150904.2872238,0,-145.547119140625,196.66357421875,78.97705078125,1,-28.7259521484375,117.8828125,-288.127197265625,2,25.3189697265625,118.66748046875,-289.46923828125,3,136.8575439453125,196.4248046875,78.3095703125,0.0,0.0,0.0,0.0,-0.0011111111111111111,0.0022222222222222222,-0.0,-0.21,1.86,9.59,11.794152416000001
1671150904.2972658,0,-145.53790283203125,196.553955078125,78.990478515625,1,-28.756103515625,117.882080078125,-288.114013671875,2,25.40380859375,118.66748046875,-289.48974609375,3,136.880126953125,196.40771484375,78.361083984375,0.0,0.0,0.0,0.0,-0.0011111111111111111,0.0022222222222222222,-0.0,-0.21,1.86,9.59,11.794152416000001
1671150904.3073404,0,-145.58038330078125,196.6640625,78.992431640625,1,-28.7125244140625,117.872314453125,-288.076171875,2,25.418212890625,118.625244140625,-289.48046875,3,136.86962890625,196.470458984375,78.381103515625,0.0,0.0,0.0,0.0,-0.0011111111111111111,0.0022222222222222222,-0.0,-0.21,1.86,9.59,11.794152416000001
1671150904.3174107,0,-145.5390625,196.557861328125,78.99853515625,1,-28.69805908203125,117.77685546875,-288.108154296875,2,25.2918701171875,118.619140625,-289.409912109375,3,136.905029296875,196.450439453125,78.361083984375,0.0,0.0,0.0,0.0,-0.0011111111111111111,0.0022222222222222222,-0.0,-0.21,1.86,9.59,11.794152416000001
1671150904.3273427,0,-145.58355712890625,196.613037109375,79.01220703125,1,-28.736083984375,117.860107421875,-288.10693359375,2,25.3944091796875,118.6484375,-289.48095703125,3,136.830810546875,196.422607421875,78.337646484375,0.0,0.0,0.0,0.0,-0.0022222222222222222,-0.0,0.2833333333333333,-0.2,1.86,9.71,11.787565344
1671150904.337337,0,-145.51837158203125,196.579833984375,78.997314453125,1,-28.724609375,117.849609375,-288.143310546875,2,25.3905029296875,118.672607421875,-289.476318359375,3,136.849609375,196.377197265625,78.36279296875,0.0,0.0,0.0,0.0,-0.0022222222222222222,-0.0,0.2833333333333333,-0.2,1.86,9.71,11.787565344
1671150904.3473191,0,-145.625,196.52587890625,78.976806640625,1,-28.65924072265625,117.826416015625,-288.183837890625,2,25.3499755859375,118.653564453125,-289.44482421875,3,136.890869140625,196.4765625,78.341552734375,0.0,0.0,0.0,0.0,-0.0022222222222222222,-0.0,0.2833333333333333,-0.2,1.86,9.71,11.787565344
1671150904.357297,0,-145.61407470703125,196.576416015625,79.0146484375,1,-28.62042236328125,117.801025390625,-288.138671875,2,25.31396484375,118.6484375,-289.426513671875,3,136.8994140625,196.42578125,78.344970703125,0.0,0.0,0.0,0.0,-0.0022222222222222222,-0.0,0.2833333333333333,-0.2,1.86,9.71,11.787565344
1671150904.3673325,0,-145.5677490234375,196.583984375,78.986083984375,1,-28.68609619140625,117.783203125,-288.12109375,2,25.285400390625,118.68359375,-289.40625,3,136.91552734375,196.442626953125,78.350830078125,0.0,0.0,0.0,0.0,0.0,-0.0011111111111111111,0.0011111111111111111,-0.21,1.85,9.61,11.810620096000001
1671150904.3773084,0,-145.53729248046875,196.616943359375,78.989501953125,1,-28.63726806640625,117.788818359375,-288.12548828125,2,25.36376953125,118.67236328125,-289.47607421875,3,136.845458984375,196.43896484375,78.33447265625,0.0,0.0,0.0,0.0,0.0,-0.0011111111111111111,0.0011111111111111111,-0.21,1.85,9.61,11.810620096000001
1671150904.3873477,0,-145.55645751953125,196.653564453125,78.98876953125,1,-28.71026611328125,117.8203125,-288.115234375,2,25.357666015625,118.639404296875,-289.450439453125,3,136.86865234375,196.439453125,78.334716796875,0.0,0.0,0.0,0.0,0.0,-0.0011111111111111111,0.0011111111111111111,-0.21,1.85,9.61,11.810620096000001
1671150904.3973129,0,-145.52301025390625,196.60693359375,78.946044921875,1,-28.59613037109375,117.757080078125,-288.15185546875,2,25.3248291015625,118.64892578125,-289.465087890625,3,136.88427734375,196.477294921875,78.343017578125,0.0,0.0,0.0,0.0,0.0,-0.0011111111111111111,0.0011111111111111111,-0.21,1.85,9.61,11.810620096000001
1671150904.4073093,0,-145.520263671875,196.6220703125,78.99169921875,1,-28.76336669921875,117.82958984375,-288.120849609375,2,25.46875,118.59765625,-289.47509765625,3,136.917724609375,196.45361328125,78.358154296875,0.0,0.0,0.0,0.0,0.0,-0.0011111111111111111,0.0011111111111111111,-0.21,1.85,9.61,11.810620096000001
1671150904.4173226,0,-145.5328369140625,196.611083984375,78.98583984375,1,-28.68426513671875,117.8056640625,-288.13330078125,2,25.398681640625,118.6279296875,-289.482177734375,3,136.8662109375,196.46630859375,78.34423828125,0.0,0.0,0.0,0.0,0.0,-0.0011111111111111111,0.0011111111111111111,-0.21,1.85,9.61,11.810620096000001
1671150904.4273376,0,-145.52593994140625,196.597900390625,79.00146484375,1,-28.6207275390625,117.76171875,-288.1513671875,2,25.453857421875,118.626220703125,-289.4384765625,3,136.9039306640625,196.4189453125,78.337646484375,0.0,0.0,0.0,0.0,0.0,0.0011111111111111111,0.0022222222222222222,-0.21,1.86,9.6,11.787565344
1671150904.4373322,0,-145.54730224609375,196.622314453125,79.001953125,1,-28.619384765625,117.767578125,-288.11962890625,2,25.352783203125,118.656005859375,-289.449951171875,3,136.86572265625,196.439208984375,78.329833984375,0.0,0.0,0.0,0.0,0.0,0.0011111111111111111,0.0022222222222222222,-0.21,1.86,9.6,11.787565344
1671150904.4473429,0,-145.5479736328125,196.571044921875,78.977294921875,1,-28.5889892578125,117.771240234375,-288.107177734375,2,25.352294921875,118.70458984375,-289.482177734375,3,136.869873046875,196.4658203125,78.365478515625,0.0,0.0,0.0,0.0,0.0,0.0011111111111111111,0.0022222222222222222,-0.21,1.86,9.6,11.787565344
1671150904.4573436,0,-145.58935546875,196.6650390625,78.970703125,1,-28.70062255859375,117.833740234375,-288.11474609375,2,25.450927734375,118.60791015625,-289.460205078125,3,136.89697265625,196.485595703125,78.33642578125,0.0,0.0,0.0,0.0,0.0,0.0011111111111111111,0.0022222222222222222,-0.21,1.86,9.6,11.787565344
1671150904.4673831,0,-145.56072998046875,196.576171875,78.9716796875,1,-28.6629638671875,117.71826171875,-288.098876953125,2,25.3309326171875,118.633544921875,-289.4345703125,3,136.8951416015625,196.4619140625,78.357421875,0.0,0.0,0.0,0.0,0.0,0.0011111111111111111,0.0022222222222222222,-0.21,1.86,9.6,11.787565344
1671150904.477289,0,-145.55694580078125,196.626220703125,78.981201171875,1,-28.66766357421875,117.794921875,-288.108154296875,2,25.4493408203125,118.678955078125,-289.517822265625,3,136.8043212890625,196.4404296875,78.3349609375,0.0,0.0,0.0,0.0,0.0022222222222222222,-0.0,-0.0011111111111111111,-0.21,1.84,9.58,11.810620096000001
1671150904.4873776,0,-145.55718994140625,196.5908203125,79.00634765625,1,-28.778076171875,117.852294921875,-288.110107421875,2,25.35498046875,118.654541015625,-289.470703125,3,136.831787109375,196.41259765625,78.317138671875,0.0,0.0,0.0,0.0,0.0022222222222222222,-0.0,-0.0011111111111111111,-0.21,1.84,9.58,11.810620096000001
1671150904.4972925,0,-145.54913330078125,196.595458984375,78.9609375,1,-28.6993408203125,117.799560546875,-288.17333984375,2,25.35302734375,118.6552734375,-289.457275390625,3,136.877685546875,196.489990234375,78.349853515625,0.0,0.0,0.0,0.0,0.0022222222222222222,-0.0,-0.0011111111111111111,-0.21,1.84,9.58,11.810620096000001
1671150904.5073917,0,-145.56890869140625,196.6201171875,78.990966796875,1,-28.69720458984375,117.821533203125,-288.133544921875,2,25.40576171875,118.65087890625,-289.465576171875,3,136.8670654296875,196.4951171875,78.364501953125,0.0,0.0,0.0,0.0,0.0022222222222222222,-0.0,-0.0011111111111111111,-0.21,1.84,9.58,11.810620096000001
1671150904.5174942,0,-145.5599365234375,196.55712890625,78.952392578125,1,-28.6910400390625,117.7490234375,-288.11474609375,2,25.3134765625,118.67724609375,-289.436767578125,3,136.9195556640625,196.44580078125,78.368896484375,0.0,0.0,0.0,0.0,-0.0011111111111111111,0.0022222222222222222,-0.0,-0.2,1.86,9.63,11.804033024
1671150904.5272655,0,-145.59686279296875,196.642822265625,79.004638671875,1,-28.64190673828125,117.79248046875,-288.157958984375,2,25.3480224609375,118.66455078125,-289.494873046875,3,136.82177734375,196.4150390625,78.343017578125,0.0,0.0,0.0,0.0,-0.0011111111111111111,0.0022222222222222222,-0.0,-0.2,1.86,9.63,11.804033024
1671150904.5372903,0,-145.59967041015625,196.6806640625,78.983642578125,1,-28.6732177734375,117.8291015625,-288.12548828125,2,25.313720703125,118.67822265625,-289.44482421875,3,136.8638916015625,196.42724609375,78.336181640625,0.0,0.0,0.0,0.0,-0.0011111111111111111,0.0022222222222222222,-0.0,-0.2,1.86,9.63,11.804033024
1671150904.5472395,0,-145.56927490234375,196.59521484375,78.983642578125,1,-28.71612548828125,117.84521484375,-288.118896484375,2,25.424072265625,118.617431640625,-289.477294921875,3,136.8785400390625,196.52392578125,78.33154296875,0.0,0.0,0.0,0.0,-0.0011111111111111111,0.0022222222222222222,-0.0,-0.2,1.86,9.63,11.804033024
1671150904.557232,0,-145.571533203125,196.64404296875,78.9716796875,1,-28.66485595703125,117.8544921875,-288.144775390625,2,25.396484375,118.60302734375,-289.501708984375,3,136.844970703125,196.487060546875,78.338134765625,0.0,0.0,0.0,0.0,-0.0011111111111111111,0.0022222222222222222,-0.0,-0.2,1.86,9.63,11.804033024
1671150904.5672133,0,-145.557373046875,196.57080078125,78.996337890625,1,-28.70220947265625,117.797119140625,-288.10693359375,2,25.368896484375,118.67529296875,-289.48828125,3,136.86279296875,196.507080078125,78.333984375,0.0,0.0,0.0,0.0,0.2833333333333333,-0.0022222222222222222,0.0033333333333333335,-0.2,1.84,9.59,11.817207168000001
1671150904.5772698,0,-145.6121826171875,196.55517578125,79.01611328125,1,-28.66668701171875,117.808349609375,-288.15576171875,2,25.40625,118.59814453125,-289.488037109375,3,136.800537109375,196.447509765625,78.358642578125,0.0,0.0,0.0,0.0,0.2833333333333333,-0.0022222222222222222,0.0033333333333333335,-0.2,1.84,9.59,11.817207168000001
1671150904.5872517,0,-145.58709716796875,196.5361328125,79.02978515625,1,-28.7825927734375,117.87353515625,-288.144287109375,2,25.3575439453125,118.651123046875,-289.487548828125,3,136.7965087890625,196.418701171875,78.3525390625,0.0,0.0,0.0,0.0,0.2833333333333333,-0.0022222222222222222,0.0033333333333333335,-0.2,1.84,9.59,11.817207168000001
1671150904.5972946,0,-145.55133056640625,196.6171875,79.0009765625,1,-28.7081298828125,117.757080078125,-288.090087890625,2,25.3525390625,118.6513671875,-289.485595703125,3,136.8255615234375,196.40869140625,78.35693359375,0.0,0.0,0.0,0.0,0.2833333333333333,-0.0022222222222222222,0.0033333333333333335,-0.2,1.84,9.59,11.817207168000001
1671150904.6073334,0,-145.5872802734375,196.60791015625,79.010986328125,1,-28.7427978515625,117.8720703125,-288.1416015625,2,25.3966064453125,118.65185546875,-289.47998046875,3,136.8724365234375,196.4150390625,78.38671875,0.0,0.0,0.0,0.0,0.2833333333333333,-0.0022222222222222222,0.0033333333333333335,-0.2,1.84,9.59,11.817207168000001
1671150904.6173146,0,-145.5328369140625,196.556396484375,78.980224609375,1,-28.69189453125,117.753173828125,-288.078369140625,2,25.2313232421875,118.654052734375,-289.422119140625,3,136.831787109375,196.48828125,78.3740234375,0.0,0.0,0.0,0.0,0.0,0.0022222222222222222,0.0022222222222222222,-0.21,1.85,9.6,11.79085888
1671150904.6273572,0,-145.5845947265625,196.631591796875,78.969482421875,1,-28.70751953125,117.868896484375,-288.12451171875,2,25.3406982421875,118.700439453125,-289.474609375,3,136.80322265625,196.401123046875,78.349609375,0.0,0.0,0.0,0.0,0.0,0.0022222222222222222,0.0022222222222222222,-0.21,1.85,9.6,11.79085888
1671150904.6373127,0,-145.58258056640625,196.6259765625,78.9921875,1,-28.79583740234375,117.896484375,-288.11669921875,2,25.2833251953125,118.69189453125,-289.40673828125,3,136.8201904296875,196.388916015625,78.345703125,0.0,0.0,0.0,0.0,0.0,0.0022222222222222222,0.0022222222222222222,-0.21,1.85,9.6,11.79085888
1671150904.6473253,0,-145.638671875,196.615966796875,78.98828125,1,-28.7303466796875,117.799072265625,-288.095703125,2,25.2828369140625,118.71484375,-289.454833984375,3,136.817626953125,196.44921875,78.370849609375,0.0,0.0,0.0,0.0,0.0,0.0022222222222222222,0.0022222222222222222,-0.21,1.85,9.6,11.79085888
1671150904.6573584,0,-145.6043701171875,196.605224609375,79.003662109375,1,-28.8104248046875,117.905517578125,-288.099853515625,2,25.347412109375,118.6474609375,-289.45361328125,3,136.9251708984375,196.4267578125,78.374755859375,0.0,0.0,0.0,0.0,0.0,0.0022222222222222222,0.0022222222222222222,-0.21,1.85,9.6,11.79085888
1671150904.667345,0,-145.5150146484375,196.552734375,78.97705078125,1,-28.7059326171875,117.7890625,-288.0869140625,2,25.366943359375,118.6162109375,-289.408203125,3,136.970947265625,196.43212890625,78.35546875,0.0,0.0,0.0,0.0,0.0,0.0022222222222222222,0.0022222222222222222,-0.21,1.85,9.6,11.79085888
1671150904.6773345,0,-145.55462646484375,196.617431640625,79.006103515625,1,-28.5999755859375,117.75830078125,-288.11279296875,2,25.4053955078125,118.647705078125,-289.46826171875,3,136.8375244140625,196.444580078125,78.33984375,0.0,0.0,0.0,0.0,-0.0022222222222222222,0.0022222222222222222,-0.0011111111111111111,-0.22,1.86,9.66,11.787565344
1671150904.6873565,0,-145.5416259765625,196.617919921875,79.000732421875,1,-28.5118408203125,117.72265625,-288.150146484375,2,25.353271484375,118.64892578125,-289.457275390625,3,136.794189453125,196.420654296875,78.3359375,0.0,0.0,0.0,0.0,-0.0022222222222222222,0.0022222222222222222,-0.0011111111111111111,-0.22,1.86,9.66,11.787565344
1671150904.697361,0,-145.52801513671875,196.610595703125,78.96142578125,1,-28.67401123046875,117.840087890625,-288.10888671875,2,25.3992919921875,118.658447265625,-289.471923828125,3,136.96826171875,196.43994140625,78.351806640625,0.0,0.0,0.0,0.0,-0.0022222222222222222,0.0022222222222222222,-0.0011111111111111111,-0.22,1.86,9.66,11.787565344
1671150904.707335,0,-145.63482666015625,196.654541015625,78.98193359375,1,-28.65032958984375,117.8095703125,-288.161376953125,2,25.4171142578125,118.642333984375,-289.488037109375,3,136.90283203125,196.469482421875,78.339111328125,0.0,0.0,0.0,0.0,-0.0022222222222222222,0.0022222222222222222,-0.0011111111111111111,-0.22,1.86,9.66,11.787565344
1671150904.7173805,0,-145.55535888671875,196.618408203125,78.937255859375,1,-28.699951171875,117.739501953125,-288.0791015625,2,25.2864990234375,118.689697265625,-289.418701171875,3,136.88134765625,196.43212890625,78.36767578125,0.0,0.0,0.0,0.0,-0.0022222222222222222,0.0022222222222222222,-0.0011111111111111111,-0.22,1.86,9.66,11.787565344
1671150904.7272477,0,-145.51617431640625,196.637451171875,78.99072265625,1,-28.698486328125,117.855224609375,-288.10595703125,2,25.3363037109375,118.6728515625,-289.458984375,3,136.85205078125,196.375732421875,78.36328125,0.0,0.0,0.0,0.0,-0.0022222222222222222,0.0022222222222222222,-0.0011111111111111111,-0.22,1.86,9.66,11.787565344
1671150904.737245,0,-145.54486083984375,196.624755859375,79.003662109375,1,-28.664794921875,117.846923828125,-288.109619140625,2,25.308837890625,118.685791015625,-289.4189453125,3,136.8115234375,196.419677734375,78.337890625,0.0,0.0,0.0,0.0,0.0,-0.0,-0.0011111111111111111,-0.18,1.83,9.69,11.780978272
1671150904.7472596,0,-145.57452392578125,196.5888671875,78.986083984375,1,-28.6893310546875,117.833251953125,-288.106201171875,2,25.43896484375,118.635986328125,-289.450927734375,3,136.8367919921875,196.537841796875,78.357666015625,0.0,0.0,0.0,0.0,0.0,-0.0,-0.0011111111111111111,-0.18,1.83,9.69,11.780978272
1671150904.757308,0,-145.48468017578125,196.6435546875,79.001220703125,1,-28.75726318359375,117.855712890625,-288.084716796875,2,25.4630126953125,118.7001953125,-289.49609375,3,136.89794921875,196.478271484375,78.3544921875,0.0,0.0,0.0,0.0,0.0,-0.0,-0.0011111111111111111,-0.18,1.83,9.69,11.780978272
1671150904.767245,0,-145.5225830078125,196.59228515625,78.97265625,1,-28.651611328125,117.748291015625,-288.109375,2,25.27197265625,118.641357421875,-289.44189453125,3,136.8184814453125,196.49365234375,78.330810546875,0.0,0.0,0.0,0.0,-0.0011111111111111111,-0.0,-0.0011111111111111111,-0.22,1.85,9.59,11.810620096000001
1671150904.777234,0,-145.55816650390625,196.63037109375,78.994140625,1,-28.71771240234375,117.816162109375,-288.108642578125,2,25.3695068359375,118.662841796875,-289.44189453125,3,136.7781982421875,196.443359375,78.347900390625,0.0,0.0,0.0,0.0,-0.0011111111111111111,-0.0,-0.0011111111111111111,-0.22,1.85,9.59,11.810620096000001
1671150904.7873719,0,-145.52374267578125,196.62353515625,78.983154296875,1,-28.62677001953125,117.841064453125,-288.14892578125,2,25.3031005859375,118.6875,-289.4580078125,3,136.870361328125,196.4462890625,78.334716796875,0.0,0.0,0.0,0.0,-0.0011111111111111111,-0.0,-0.0011111111111111111,-0.22,1.85,9.59,11.810620096000001
1671150904.7973933,0,-145.51336669921875,196.61376953125,78.983154296875,1,-28.5281982421875,117.71875,-288.178955078125,2,25.3760986328125,118.648193359375,-289.458251953125,3,136.8834228515625,196.448486328125,78.357177734375,0.0,0.0,0.0,0.0,-0.0011111111111111111,-0.0,-0.0011111111111111111,-0.22,1.85,9.59,11.810620096000001
1671150904.8074102,0,-145.58135986328125,196.656005859375,78.98193359375,1,-28.5833740234375,117.779541015625,-288.156494140625,2,25.37060546875,118.627685546875,-289.44775390625,3,136.880859375,196.52099609375,78.35595703125,0.0,0.0,0.0,0.0,-0.0011111111111111111,-0.0,-0.0011111111111111111,-0.22,1.85,9.59,11.810620096000001
1671150904.817222,0,-145.49786376953125,196.61376953125,78.965576171875,1,-28.69268798828125,117.79443359375,-288.114501953125,2,25.2684326171875,118.684814453125,-289.42626953125,3,136.8966064453125,196.43505859375,78.36474609375,0.0,0.0,0.0,0.0,-0.0011111111111111111,-0.0,-0.0011111111111111111,-0.22,1.85,9.59,11.810620096000001
1671150904.8273072,0,-145.5533447265625,196.6904296875,78.986083984375,1,-28.69189453125,117.8212890625,-288.13037109375,2,25.3626708984375,118.6650390625,-289.46533203125,3,136.815185546875,196.428466796875,78.3466796875,0.0,0.0,0.0,0.0,0.0011111111111111111,0.0011111111111111111,-0.0,-0.2,1.85,9.57,11.800739488
1671150904.837334,0,-145.576416015625,196.7353515625,78.972900390625,1,-28.65203857421875,117.80029296875,-288.147705078125,2,25.3013916015625,118.6962890625,-289.4482421875,3,136.84814453125,196.429931640625,78.351318359375,0.0,0.0,0.0,0.0,0.0011111111111111111,0.0011111111111111111,-0.0,-0.2,1.85,9.57,11.800739488
1671150904.847273,0,-145.5506591796875,196.674560546875,78.993896484375,1,-28.68231201171875,117.7578125,-288.11962890625,2,25.286865234375,118.701416015625,-289.4267578125,3,136.828857421875,196.43359375,78.328857421875,0.0,0.0,0.0,0.0,0.0011111111111111111,0.0011111111111111111,-0.0,-0.2,1.85,9.57,11.800739488
1671150904.8571944,0,-145.6043701171875,196.67041015625,78.992919921875,1,-28.7193603515625,117.87646484375,-288.090576171875,2,25.3939208984375,118.644287109375,-289.447509765625,3,136.865478515625,196.486083984375,78.362060546875,0.0,0.0,0.0,0.0,0.0011111111111111111,0.0011111111111111111,-0.0,-0.2,1.85,9.57,11.800739488
1671150904.8672252,0,-145.55548095703125,196.634521484375,78.99560546875,1,-28.670654296875,117.749755859375,-288.09912109375,2,25.2886962890625,118.699462890625,-289.439697265625,3,136.885986328125,196.45068359375,78.350341796875,0.0,0.0,0.0,0.0,-0.2833333333333333,0.0011111111111111111,-0.0,-0.19,1.86,9.63,11.810620096000001
1671150904.877224,0,-145.57135009765625,196.662353515625,78.995361328125,1,-28.63525390625,117.820556640625,-288.13720703125,2,25.3621826171875,118.6748046875,-289.454345703125,3,136.850341796875,196.424072265625,78.335205078125,0.0,0.0,0.0,0.0,-0.2833333333333333,0.0011111111111111111,-0.0,-0.19,1.86,9.63,11.810620096000001
1671150904.887226,0,-145.570556640625,196.63671875,78.997314453125,1,-28.65228271484375,117.811279296875,-288.118896484375,2,25.396240234375,118.6806640625,-289.47021484375,3,136.8177490234375,196.451171875,78.3193359375,0.0,0.0,0.0,0.0,-0.2833333333333333,0.0011111111111111111,-0.0,-0.19,1.86,9.63,11.810620096000001
1671150904.897372,0,-145.52215576171875,196.590576171875,79.00390625,1,-28.685302734375,117.859619140625,-288.112548828125,2,25.437255859375,118.69873046875,-289.5048828125,3,136.86572265625,196.474853515625,78.3779296875,0.0,0.0,0.0,0.0,-0.2833333333333333,0.0011111111111111111,-0.0,-0.19,1.86,9.63,11.810620096000001
1671150904.9073436,0,-145.59820556640625,196.636474609375,78.999755859375,1,-28.67279052734375,117.824462890625,-288.09326171875,2,25.4169921875,118.6162109375,-289.502685546875,3,136.8668212890625,196.428466796875,78.35693359375,0.0,0.0,0.0,0.0,-0.2833333333333333,0.0011111111111111111,-0.0,-0.19,1.86,9.63,11.810620096000001
1671150904.917396,0,-145.546875,196.572998046875,78.967041015625,1,-28.65185546875,117.738037109375,-288.091796875,2,25.357177734375,118.656005859375,-289.453369140625,3,136.90478515625,196.421875,78.355712890625,0.0,0.0,0.0,0.0,0.0,-0.0011111111111111111,-0.0011111111111111111,-0.2,1.87,9.57,11.787565344
1671150904.9273262,0,-145.59783935546875,196.58447265625,78.989990234375,1,-28.65576171875,117.800537109375,-288.182861328125,2,25.46875,118.6474609375,-289.5,3,136.7900390625,196.425537109375,78.33544921875,0.0,0.0,0.0,0.0,0.0,-0.0011111111111111111,-0.0011111111111111111,-0.2,1.87,9.57,11.787565344
1671150904.93733,0,-145.59490966796875,196.599609375,78.98046875,1,-28.74652099609375,117.86669921875,-288.125,2,25.39404296875,118.6318359375,-289.481689453125,3,136.865234375,196.372802734375,78.36181640625,0.0,0.0,0.0,0.0,0.0,-0.0011111111111111111,-0.0011111111111111111,-0.2,1.87,9.57,11.787565344
1671150904.9472995,0,-145.51617431640625,196.58447265625,78.97216796875,1,-28.68450927734375,117.826416015625,-288.1171875,2,25.4552001953125,118.6357421875,-289.50927734375,3,136.9014892578125,196.493408203125,78.349609375,0.0,0.0,0.0,0.0,0.0,-0.0011111111111111111,-0.0011111111111111111,-0.2,1.87,9.57,11.787565344
1671150904.9573514,0,-145.5872802734375,196.672607421875,78.98583984375,1,-28.67864990234375,117.802734375,-288.109375,2,25.3623046875,118.651611328125,-289.442626953125,3,136.848388671875,196.46826171875,78.387451171875,0.0,0.0,0.0,0.0,0.0,-0.0011111111111111111,-0.0011111111111111111,-0.2,1.87,9.57,11.787565344
1671150904.9673269,0,-145.5516357421875,196.5634765625,78.987548828125,1,-28.66290283203125,117.76025390625,-288.11767578125,2,25.3297119140625,118.626953125,-289.476318359375,3,136.8363037109375,196.528564453125,78.35009765625,0.0,0.0,0.0,0.0,0.0,-0.0011111111111111111,-0.0011111111111111111,-0.2,1.87,9.57,11.787565344
1671150904.9772725,0,-145.60992431640625,196.656494140625,78.97607421875,1,-28.640625,117.802978515625,-288.138427734375,2,25.3438720703125,118.6650390625,-289.497314453125,3,136.8583984375,196.395751953125,78.34375,0.0,0.0,0.0,0.0,-0.0011111111111111111,-0.0,-0.0,-0.2,1.85,9.58,11.80732656
1671150904.987252,0,-145.57769775390625,196.609375,79.00830078125,1,-28.70709228515625,117.8251953125,-288.134521484375,2,25.2646484375,118.704833984375,-289.451904296875,3,136.822265625,196.431396484375,78.34521484375,0.0,0.0,0.0,0.0,-0.0011111111111111111,-0.0,-0.0,-0.2,1.85,9.58,11.80732656
1671150904.997312,0,-145.56304931640625,196.575439453125,78.974853515625,1,-28.656494140625,117.795654296875,-288.1513671875,2,25.373046875,118.675048828125,-289.48583984375,3,136.8721923828125,196.468017578125,78.3486328125,0.0,0.0,0.0,0.0,-0.0011111111111111111,-0.0,-0.0,-0.2,1.85,9.58,11.80732656
1671150905.007317,0,-145.58575439453125,196.6220703125,78.99609375,1,-28.62646484375,117.78564453125,-288.13623046875,2,25.4266357421875,118.64794921875,-289.512939453125,3,136.9056396484375,196.426025390625,78.3388671875,0.0,0.0,0.0,0.0,-0.0011111111111111111,-0.0,-0.0,-0.2,1.85,9.58,11.80732656
1671150905.017224,0,-145.5809326171875,196.55419921875,78.991943359375,1,-28.70037841796875,117.7685546875,-288.09228515625,2,25.36376953125,118.6689453125,-289.477783203125,3,136.873046875,196.511474609375,78.329833984375,0.0,0.0,0.0,0.0,-0.0011111111111111111,-0.0,-0.0,-0.2,1.85,9.58,11.80732656
1671150905.0273712,0,-145.5989990234375,196.6318359375,79.01318359375,1,-28.735595703125,117.840576171875,-288.122314453125,2,25.3775634765625,118.658203125,-289.467529296875,3,136.802001953125,196.44384765625,78.308349609375,0.0,0.0,0.0,0.0,0.0011111111111111111,0.0011111111111111111,-0.0011111111111111111,-0.22,1.86,9.62,11.794152416000001
1671150905.0372534,0,-145.55462646484375,196.616455078125,78.99462890625,1,-28.73046875,117.834228515625,-288.122314453125,2,25.307861328125,118.71337890625,-289.419677734375,3,136.8231201171875,196.464599609375,78.33251953125,0.0,0.0,0.0,0.0,0.0011111111111111111,0.0011111111111111111,-0.0011111111111111111,-0.22,1.86,9.62,11.794152416000001
1671150905.0473742,0,-145.5694580078125,196.63037109375,78.99853515625,1,-28.72381591796875,117.7734375,-288.087890625,2,25.3690185546875,118.6455078125,-289.452880859375,3,136.8480224609375,196.426513671875,78.347900390625,0.0,0.0,0.0,0.0,0.0011111111111111111,0.0011111111111111111,-0.0011111111111111111,-0.22,1.86,9.62,11.794152416000001
1671150905.0573356,0,-145.52801513671875,196.60693359375,78.980224609375,1,-28.8470458984375,117.92041015625,-288.0966796875,2,25.404541015625,118.611083984375,-289.454833984375,3,136.930908203125,196.46533203125,78.361572265625,0.0,0.0,0.0,0.0,0.0011111111111111111,0.0011111111111111111,-0.0011111111111111111,-0.22,1.86,9.62,11.794152416000001
1671150905.0673811,0,-145.51483154296875,196.639892578125,78.96826171875,1,-28.73211669921875,117.767578125,-288.09423828125,2,25.3853759765625,118.649658203125,-289.4453125,3,136.8511962890625,196.49609375,78.37646484375,0.0,0.0,0.0,0.0,0.0,-0.0022222222222222222,0.0022222222222222222,-0.2,1.85,9.6,11.797445952
1671150905.0773408,0,-145.59814453125,196.71337890625,78.96875,1,-28.67144775390625,117.80615234375,-288.126953125,2,25.3304443359375,118.6904296875,-289.4716796875,3,136.85888671875,196.430419921875,78.31640625,0.0,0.0,0.0,0.0,0.0,-0.0022222222222222222,0.0022222222222222222,-0.2,1.85,9.6,11.797445952
1671150905.08728,0,-145.52154541015625,196.66064453125,78.99658203125,1,-28.64581298828125,117.7998046875,-288.133544921875,2,25.207275390625,118.702880859375,-289.40869140625,3,136.76025390625,196.360595703125,78.331787109375,0.0,0.0,0.0,0.0,0.0,-0.0022222222222222222,0.0022222222222222222,-0.2,1.85,9.6,11.797445952
1671150905.097241,0,-145.5162353515625,196.5966796875,78.973876953125,1,-28.60174560546875,117.780517578125,-288.191650390625,2,25.2991943359375,118.66357421875,-289.412109375,3,136.884765625,196.4580078125,78.362548828125,0.0,0.0,0.0,0.0,0.0,-0.0022222222222222222,0.0022222222222222222,-0.2,1.85,9.6,11.797445952
1671150905.107287,0,-145.56658935546875,196.610107421875,79.006103515625,1,-28.787841796875,117.8837890625,-288.117431640625,2,25.2335205078125,118.6767578125,-289.427490234375,3,136.8759765625,196.478759765625,78.33642578125,0.0,0.0,0.0,0.0,0.0,-0.0022222222222222222,0.0022222222222222222,-0.2,1.85,9.6,11.797445952
1671150905.1172173,0,-145.49835205078125,196.659423828125,78.9541015625,1,-28.6312255859375,117.741455078125,-288.122802734375,2,25.2310791015625,118.701904296875,-289.43505859375,3,136.856689453125,196.49658203125,78.361328125,0.0,0.0,0.0,0.0,0.0,-0.0022222222222222222,0.0022222222222222222,-0.2,1.85,9.6,11.797445952
1671150905.127226,0,-145.515380859375,196.6708984375,78.972412109375,1,-28.66766357421875,117.814208984375,-288.15576171875,2,25.349853515625,118.65966796875,-289.438232421875,3,136.8214111328125,196.4462890625,78.33251953125,0.0,0.0,0.0,0.0,0.0011111111111111111,-0.0,-0.0,-0.2,1.85,9.59,11.80732656
1671150905.137211,0,-145.574462890625,196.691162109375,79.003173828125,1,-28.706787109375,117.83203125,-288.110595703125,2,25.335693359375,118.639404296875,-289.431640625,3,136.7952880859375,196.40869140625,78.34716796875,0.0,0.0,0.0,0.0,0.0011111111111111111,-0.0,-0.0,-0.2,1.85,9.59,11.80732656
1671150905.147228,0,-145.5628662109375,196.6201171875,78.9755859375,1,-28.6781005859375,117.818115234375,-288.14404296875,2,25.4560546875,118.631591796875,-289.46435546875,3,136.7760009765625,196.380126953125,78.428466796875,0.0,0.0,0.0,0.0,0.0011111111111111111,-0.0,-0.0,-0.2,1.85,9.59,11.80732656
1671150905.1572654,0,-145.5426025390625,196.683349609375,78.986572265625,1,-28.7413330078125,117.833740234375,-288.137939453125,2,25.425048828125,118.65625,-289.4716796875,3,136.9559326171875,196.469970703125,78.326171875,0.0,0.0,0.0,0.0,0.0011111111111111111,-0.0,-0.0,-0.2,1.85,9.59,11.80732656
1671150905.1672244,0,-145.52264404296875,196.586669921875,78.982177734375,1,-28.63360595703125,117.74169921875,-288.140869140625,2,25.359619140625,118.627197265625,-289.447265625,3,136.9481201171875,196.391845703125,78.349365234375,0.0,0.0,0.0,0.0,0.0011111111111111111,-0.0,-0.0,-0.2,1.85,9.59,11.80732656
1671150905.1772654,0,-145.60845947265625,196.6083984375,78.98486328125,1,-28.6572265625,117.7998046875,-288.146728515625,2,25.415283203125,118.6416015625,-289.472412109375,3,136.80517578125,196.412109375,78.322265625,0.0,0.0,0.0,0.0,0.0,0.0022222222222222222,-0.0011111111111111111,-0.21,1.84,9.58,11.794152416000001
1671150905.1872494,0,-145.50701904296875,196.653564453125,78.9677734375,1,-28.71484375,117.82275390625,-288.117431640625,2,25.381591796875,118.652587890625,-289.45458984375,3,136.8555908203125,196.450439453125,78.322021484375,0.0,0.0,0.0,0.0,0.0,0.0022222222222222222,-0.0011111111111111111,-0.21,1.84,9.58,11.794152416000001
1671150905.1972666,0,-145.57879638671875,196.58349609375,78.981689453125,1,-28.69244384765625,117.782958984375,-288.11376953125,2,25.4024658203125,118.626220703125,-289.47216796875,3,136.953857421875,196.459228515625,78.33935546875,0.0,0.0,0.0,0.0,0.0,0.0022222222222222222,-0.0011111111111111111,-0.21,1.84,9.58,11.794152416000001
1671150905.207342,0,-145.62615966796875,196.647705078125,78.997802734375,1,-28.73974609375,117.8427734375,-288.137451171875,2,25.390869140625,118.634521484375,-289.436279296875,3,136.828125,196.473876953125,78.3681640625,0.0,0.0,0.0,0.0,0.0,0.0022222222222222222,-0.0011111111111111111,-0.21,1.84,9.58,11.794152416000001
1671150905.2173285,0,-145.54754638671875,196.576171875,78.964111328125,1,-28.66680908203125,117.7802734375,-288.08544921875,2,25.3739013671875,118.633056640625,-289.43115234375,3,136.880615234375,196.467529296875,78.3408203125,0.0,0.0,0.0,0.0,0.0,-0.0,-0.0,-0.2,1.84,9.61,11.810620096000001
1671150905.2273889,0,-145.5582275390625,196.6162109375,78.9990234375,1,-28.65045166015625,117.826416015625,-288.1103515625,2,25.349365234375,118.65771484375,-289.458740234375,3,136.8511962890625,196.411376953125,78.31396484375,0.0,0.0,0.0,0.0,0.0,-0.0,-0.0,-0.2,1.84,9.61,11.810620096000001
1671150905.2372725,0,-145.58917236328125,196.553466796875,79.011962890625,1,-28.647705078125,117.784912109375,-288.14013671875,2,25.3568115234375,118.668701171875,-289.460693359375,3,136.846923828125,196.3837890625,78.354248046875,0.0,0.0,0.0,0.0,0.0,-0.0,-0.0,-0.2,1.84,9.61,11.810620096000001
1671150905.2472882,0,-145.60675048828125,196.635986328125,78.9736328125,1,-28.7200927734375,117.859619140625,-288.095947265625,2,25.3948974609375,118.675048828125,-289.454345703125,3,136.890625,196.456787109375,78.343994140625,0.0,0.0,0.0,0.0,0.0,-0.0,-0.0,-0.2,1.84,9.61,11.810620096000001
1671150905.2573473,0,-145.51483154296875,196.64453125,79.01025390625,1,-28.66510009765625,117.800048828125,-288.113525390625,2,25.370849609375,118.662353515625,-289.432861328125,3,136.890380859375,196.451416015625,78.352783203125,0.0,0.0,0.0,0.0,0.0,-0.0,-0.0,-0.2,1.84,9.61,11.810620096000001
1671150905.2672808,0,-145.54852294921875,196.59326171875,78.97900390625,1,-28.72357177734375,117.821044921875,-288.097412109375,2,25.2784423828125,118.685302734375,-289.41064453125,3,136.8671875,196.433349609375,78.322021484375,0.0,0.0,0.0,0.0,0.0,-0.0,-0.0,-0.2,1.84,9.61,11.810620096000001
1671150905.2772272,0,-145.50335693359375,196.601806640625,79.028564453125,1,-28.5994873046875,117.75390625,-288.146240234375,2,25.3587646484375,118.661865234375,-289.462890625,3,136.851806640625,196.431396484375,78.337158203125,0.0,0.0,0.0,0.0,0.0011111111111111111,-0.0,-0.0,-0.2,1.84,9.59,11.810620096000001
1671150905.2872477,0,-145.56732177734375,196.62646484375,78.99462890625,1,-28.61114501953125,117.780517578125,-288.160400390625,2,25.256591796875,118.679443359375,-289.41748046875,3,136.826904296875,196.399658203125,78.3603515625,0.0,0.0,0.0,0.0,0.0011111111111111111,-0.0,-0.0,-0.2,1.84,9.59,11.810620096000001
1671150905.297242,0,-145.5306396484375,196.569580078125,78.996826171875,1,-28.6199951171875,117.80859375,-288.142578125,2,25.3592529296875,118.671875,-289.45556640625,3,136.9833984375,196.459228515625,78.35009765625,0.0,0.0,0.0,0.0,0.0011111111111111111,-0.0,-0.0,-0.2,1.84,9.59,11.810620096000001
1671150905.3072526,0,-145.54425048828125,196.60302734375,78.991943359375,1,-28.57977294921875,117.747802734375,-288.10546875,2,25.3319091796875,118.665283203125,-289.45068359375,3,136.938720703125,196.45703125,78.355224609375,0.0,0.0,0.0,0.0,0.0011111111111111111,-0.0,-0.0,-0.2,1.84,9.59,11.810620096000001
1671150905.317217,0,-145.48876953125,196.530517578125,78.978271484375,1,-28.64593505859375,117.71728515625,-288.102294921875,2,25.2869873046875,118.6201171875,-289.442138671875,3,136.919677734375,196.44970703125,78.38330078125,0.0,0.0,0.0,0.0,0.0011111111111111111,-0.0,-0.0,-0.2,1.84,9.59,11.810620096000001
1671150905.327224,0,-145.54681396484375,196.6552734375,78.97900390625,1,-28.685791015625,117.859619140625,-288.078857421875,2,25.3345947265625,118.673583984375,-289.46044921875,3,136.8536376953125,196.414794921875,78.36181640625,0.0,0.0,0.0,0.0,0.0,0.28444444444444444,-0.0011111111111111111,-0.21,1.83,9.57,11.79085888
1671150905.337224,0,-145.521728515625,196.567138671875,79.013916015625,1,-28.696533203125,117.8583984375,-288.101318359375,2,25.3197021484375,118.641845703125,-289.42919921875,3,136.8341064453125,196.380615234375,78.34814453125,0.0,0.0,0.0,0.0,0.0,0.28444444444444444,-0.0011111111111111111,-0.21,1.83,9.57,11.79085888
1671150905.347373,0,-145.53973388671875,196.633056640625,79.0244140625,1,-28.684814453125,117.746826171875,-288.114990234375,2,25.2779541015625,118.70654296875,-289.43603515625,3,136.79638671875,196.429443359375,78.32958984375,0.0,0.0,0.0,0.0,0.0,0.28444444444444444,-0.0011111111111111111,-0.21,1.83,9.57,11.79085888
1671150905.3573368,0,-145.5625,196.6337890625,78.985107421875,1,-28.69500732421875,117.840576171875,-288.13232421875,2,25.455322265625,118.641357421875,-289.471923828125,3,136.90625,196.4677734375,78.3740234375,0.0,0.0,0.0,0.0,0.0,0.28444444444444444,-0.0011111111111111111,-0.21,1.83,9.57,11.79085888
1671150905.3674002,0,-145.49932861328125,196.54833984375,78.99365234375,1,-28.75543212890625,117.777587890625,-288.109619140625,2,25.335693359375,118.659423828125,-289.434814453125,3,136.8428955078125,196.427734375,78.37109375,0.0,0.0,0.0,0.0,0.0,0.28444444444444444,-0.0011111111111111111,-0.21,1.83,9.57,11.79085888
1671150905.3772929,0,-145.6068115234375,196.56640625,79.027587890625,1,-28.7340087890625,117.861083984375,-288.1044921875,2,25.41748046875,118.638671875,-289.43896484375,3,136.8360595703125,196.4267578125,78.359619140625,0.0,0.0,0.0,0.0,0.0011111111111111111,0.0011111111111111111,-0.0,-0.18,1.85,9.64,11.794152416000001
1671150905.3873413,0,-145.68328857421875,196.616943359375,78.980712890625,1,-28.7154541015625,117.835205078125,-288.1474609375,2,25.379638671875,118.65478515625,-289.451416015625,3,136.7900390625,196.429931640625,78.355224609375,0.0,0.0,0.0,0.0,0.0011111111111111111,0.0011111111111111111,-0.0,-0.18,1.85,9.64,11.794152416000001
1671150905.3973343,0,-145.58062744140625,196.546142578125,78.997802734375,1,-28.77459716796875,117.874267578125,-288.1181640625,2,25.3416748046875,118.68212890625,-289.482421875,3,136.841064453125,196.483642578125,78.368408203125,0.0,0.0,0.0,0.0,0.0011111111111111111,0.0011111111111111111,-0.0,-0.18,1.85,9.64,11.794152416000001
1671150905.40735,0,-145.479248046875,196.67724609375,78.979736328125,1,-28.73760986328125,117.90576171875,-288.15966796875,2,25.40869140625,118.623779296875,-289.4638671875,3,136.947998046875,196.470458984375,78.3232421875,0.0,0.0,0.0,0.0,0.0011111111111111111,0.0011111111111111111,-0.0,-0.18,1.85,9.64,11.794152416000001
1671150905.4173303,0,-145.56793212890625,196.596923828125,78.982666015625,1,-28.71221923828125,117.781005859375,-288.11328125,2,25.38330078125,118.647705078125,-289.4462890625,3,136.8624267578125,196.527587890625,78.34228515625,0.0,0.0,0.0,0.0,-0.0022222222222222222,0.0022222222222222222,-0.0,-0.21,1.83,9.57,11.80732656
1671150905.4272747,0,-145.5311279296875,196.585205078125,78.99609375,1,-28.70050048828125,117.83154296875,-288.142333984375,2,25.4517822265625,118.6669921875,-289.508056640625,3,136.8916015625,196.417724609375,78.344970703125,0.0,0.0,0.0,0.0,-0.0022222222222222222,0.0022222222222222222,-0.0,-0.21,1.83,9.57,11.80732656
1671150905.4373639,0,-145.601806640625,196.56005859375,79.016357421875,1,-28.743408203125,117.879150390625,-288.1044921875,2,25.3570556640625,118.677001953125,-289.468994140625,3,136.829345703125,196.445556640625,78.349853515625,0.0,0.0,0.0,0.0,-0.0022222222222222222,0.0022222222222222222,-0.0,-0.21,1.83,9.57,11.80732656
1671150905.447259,0,-145.54925537109375,196.6083984375,78.990478515625,1,-28.7325439453125,117.84326171875,-288.126953125,2,25.330078125,118.638671875,-289.42333984375,3,136.8956298828125,196.510498046875,78.35302734375,0.0,0.0,0.0,0.0,-0.0022222222222222222,0.0022222222222222222,-0.0,-0.21,1.83,9.57,11.80732656
1671150905.4572327,0,-145.54254150390625,196.598388671875,78.98779296875,1,-28.5594482421875,117.706787109375,-288.1826171875,2,25.4490966796875,118.607421875,-289.5009765625,3,136.8651123046875,196.49267578125,78.39013671875,0.0,0.0,0.0,0.0,-0.0022222222222222222,0.0022222222222222222,-0.0,-0.21,1.83,9.57,11.80732656
1671150905.4672236,0,-145.47735595703125,196.5869140625,78.979248046875,1,-28.6552734375,117.728759765625,-288.10693359375,2,25.2581787109375,118.58935546875,-289.38427734375,3,136.8267822265625,196.524658203125,78.327392578125,0.0,0.0,0.0,0.0,-0.0022222222222222222,0.0022222222222222222,-0.0,-0.21,1.83,9.57,11.80732656
1671150905.4772089,0,-145.5389404296875,196.623291015625,78.977783203125,1,-28.65338134765625,117.78857421875,-288.144287109375,2,25.322998046875,118.640380859375,-289.455810546875,3,136.7705078125,196.415283203125,78.340576171875,0.0,0.0,0.0,0.0,0.0,0.0011111111111111111,-0.0,-0.2,1.84,9.57,11.80732656
1671150905.48721,0,-145.5355224609375,196.667236328125,78.987548828125,1,-28.66302490234375,117.7861328125,-288.144287109375,2,25.3536376953125,118.64892578125,-289.4267578125,3,136.8314208984375,196.43310546875,78.321044921875,0.0,0.0,0.0,0.0,0.0,0.0011111111111111111,-0.0,-0.2,1.84,9.57,11.80732656
1671150905.4972084,0,-145.54327392578125,196.6201171875,78.966552734375,1,-28.615966796875,117.767822265625,-288.150146484375,2,25.3961181640625,118.642822265625,-289.448974609375,3,136.892822265625,196.47021484375,78.374755859375,0.0,0.0,0.0,0.0,0.0,0.0011111111111111111,-0.0,-0.2,1.84,9.57,11.80732656
1671150905.5072467,0,-145.50634765625,196.616455078125,78.9912109375,1,-28.64691162109375,117.79443359375,-288.128173828125,2,25.4281005859375,118.6201171875,-289.446044921875,3,136.859375,196.46533203125,78.369384765625,0.0,0.0,0.0,0.0,0.0,0.0011111111111111111,-0.0,-0.2,1.84,9.57,11.80732656
1671150905.517398,0,-145.5496826171875,196.58349609375,78.955078125,1,-28.6719970703125,117.7587890625,-288.121826171875,2,25.3489990234375,118.692138671875,-289.46923828125,3,136.8756103515625,196.477294921875,78.34521484375,0.0,0.0,0.0,0.0,0.0011111111111111111,-0.0,0.0011111111111111111,-0.2,1.84,9.6,11.804033024
1671150905.5273318,0,-145.51348876953125,196.59130859375,79.010498046875,1,-28.60198974609375,117.75341796875,-288.17431640625,2,25.3731689453125,118.67724609375,-289.479248046875,3,136.8492431640625,196.423095703125,78.360595703125,0.0,0.0,0.0,0.0,0.0011111111111111111,-0.0,0.0011111111111111111,-0.2,1.84,9.6,11.804033024
1671150905.5372722,0,-145.54632568359375,196.63818359375,78.968994140625,1,-28.64093017578125,117.779541015625,-288.12451171875,2,25.397705078125,118.6025390625,-289.404052734375,3,136.835693359375,196.443603515625,78.380859375,0.0,0.0,0.0,0.0,0.0011111111111111111,-0.0,0.0011111111111111111,-0.2,1.84,9.6,11.804033024
1671150905.5472527,0,-145.536376953125,196.63525390625,78.955078125,1,-28.61981201171875,117.771484375,-288.168701171875,2,25.404541015625,118.649658203125,-289.455078125,3,136.9375,196.438720703125,78.357421875,0.0,0.0,0.0,0.0,0.0011111111111111111,-0.0,0.0011111111111111111,-0.2,1.84,9.6,11.804033024
1671150905.5572212,0,-145.5650634765625,196.665771484375,78.95751953125,1,-28.65032958984375,117.82275390625,-288.201904296875,2,25.44970703125,118.603271484375,-289.517822265625,3,136.9022216796875,196.439697265625,78.38037109375,0.0,0.0,0.0,0.0,0.0011111111111111111,-0.0,0.0011111111111111111,-0.2,1.84,9.6,11.804033024
1671150905.5672483,0,-145.54656982421875,196.589111328125,78.97216796875,1,-28.65093994140625,117.766845703125,-288.126220703125,2,25.3900146484375,118.607666015625,-289.457275390625,3,136.91162109375,196.440673828125,78.355712890625,0.0,0.0,0.0,0.0,0.0011111111111111111,-0.0,0.0011111111111111111,-0.2,1.84,9.6,11.804033024
1671150905.5773695,0,-145.5494384765625,196.646728515625,78.990234375,1,-28.72015380859375,117.826904296875,-288.13916015625,2,25.365234375,118.658935546875,-289.465576171875,3,136.859619140625,196.4140625,78.34228515625,0.0,0.0,0.0,0.0,0.0011111111111111111,-0.0,0.0011111111111111111,-0.2,1.84,9.6,11.804033024
1671150905.5872726,0,-145.60107421875,196.656982421875,78.991943359375,1,-28.7559814453125,117.866455078125,-288.126953125,2,25.340087890625,118.686279296875,-289.458251953125,3,136.843994140625,196.432373046875,78.343017578125,0.0,0.0,0.0,0.0,-0.0022222222222222222,-0.0,-0.0,-0.19,1.85,9.6,11.797445952
1671150905.5973697,0,-145.552978515625,196.5673828125,78.98583984375,1,-28.79498291015625,117.8603515625,-288.119873046875,2,25.3577880859375,118.683837890625,-289.468505859375,3,136.92431640625,196.44970703125,78.3662109375,0.0,0.0,0.0,0.0,-0.0022222222222222222,-0.0,-0.0,-0.19,1.85,9.6,11.797445952
1671150905.6073213,0,-145.55133056640625,196.635498046875,78.999755859375,1,-28.7271728515625,117.85986328125,-288.127197265625,2,25.371337890625,118.66748046875,-289.456298828125,3,136.877685546875,196.475830078125,78.345458984375,0.0,0.0,0.0,0.0,-0.0022222222222222222,-0.0,-0.0,-0.19,1.85,9.6,11.797445952
1671150905.6174698,0,-145.528076171875,196.596923828125,78.976806640625,1,-28.6572265625,117.73828125,-288.098876953125,2,25.2462158203125,118.6748046875,-289.4365234375,3,136.8953857421875,196.497802734375,78.364990234375,0.0,0.0,0.0,0.0,0.0022222222222222222,-0.0,-0.0022222222222222222,-0.19,1.85,9.58,11.797445952
1671150905.6273384,0,-145.52783203125,196.658203125,78.991943359375,1,-28.6708984375,117.860595703125,-288.150634765625,2,25.3529052734375,118.671142578125,-289.423828125,3,136.8486328125,196.416259765625,78.347412109375,0.0,0.0,0.0,0.0,0.0022222222222222222,-0.0,-0.0022222222222222222,-0.19,1.85,9.58,11.797445952
1671150905.6373444,0,-145.46783447265625,196.646728515625,79.010009765625,1,-28.589111328125,117.782958984375,-288.1728515625,2,25.314697265625,118.65478515625,-289.416015625,3,136.83642578125,196.43505859375,78.347900390625,0.0,0.0,0.0,0.0,0.0022222222222222222,-0.0,-0.0022222222222222222,-0.19,1.85,9.58,11.797445952
1671150905.6473312,0,-145.5252685546875,196.57177734375,78.984130859375,1,-28.69622802734375,117.81201171875,-288.142333984375,2,25.37451171875,118.62939453125,-289.4326171875,3,136.8492431640625,196.496337890625,78.377685546875,0.0,0.0,0.0,0.0,0.0022222222222222222,-0.0,-0.0022222222222222222,-0.19,1.85,9.58,11.797445952
1671150905.657373,0,-145.56884765625,196.615234375,78.99658203125,1,-28.66168212890625,117.76806640625,-288.164794921875,2,25.3485107421875,118.695068359375,-289.488525390625,3,136.908447265625,196.4609375,78.3291015625,0.0,0.0,0.0,0.0,0.0022222222222222222,-0.0,-0.0022222222222222222,-0.19,1.85,9.58,11.797445952
1671150905.667341,0,-145.52496337890625,196.615234375,78.95849609375,1,-28.6358642578125,117.7431640625,-288.118408203125,2,25.3861083984375,118.632568359375,-289.48095703125,3,136.913818359375,196.452392578125,78.3447265625,0.0,0.0,0.0,0.0,0.0022222222222222222,-0.0,-0.0022222222222222222,-0.19,1.85,9.58,11.797445952
1671150905.6773353,0,-145.52288818359375,196.66650390625,78.974365234375,1,-28.6268310546875,117.78759765625,-288.156982421875,2,25.4901123046875,118.587158203125,-289.48046875,3,136.9072265625,196.424072265625,78.342529296875,0.0,0.0,0.0,0.0,-0.0011111111111111111,-0.0022222222222222222,-0.0011111111111111111,-0.22,1.86,9.59,11.80732656
1671150905.687276,0,-145.529052734375,196.6650390625,78.99853515625,1,-28.7489013671875,117.8486328125,-288.109375,2,25.3992919921875,118.626220703125,-289.455078125,3,136.87890625,196.422119140625,78.323974609375,0.0,0.0,0.0,0.0,-0.0011111111111111111,-0.0022222222222222222,-0.0011111111111111111,-0.22,1.86,9.59,11.80732656
1671150905.697313,0,-145.5328369140625,196.60009765625,78.97216796875,1,-28.65936279296875,117.8251953125,-288.123046875,2,25.478515625,118.623291015625,-289.45703125,3,136.92626953125,196.4482421875,78.361572265625,0.0,0.0,0.0,0.0,-0.0011111111111111111,-0.0022222222222222222,-0.0011111111111111111,-0.22,1.86,9.59,11.80732656
1671150905.7072544,0,-145.5911865234375,196.5673828125,78.9736328125,1,-28.6181640625,117.7734375,-288.166748046875,2,25.479248046875,118.593505859375,-289.470703125,3,136.8720703125,196.486083984375,78.33056640625,0.0,0.0,0.0,0.0,-0.0011111111111111111,-0.0022222222222222222,-0.0011111111111111111,-0.22,1.86,9.59,11.80732656
1671150905.7172494,0,-145.51885986328125,196.580810546875,78.966552734375,1,-28.64910888671875,117.728759765625,-288.093994140625,2,25.3565673828125,118.678466796875,-289.443603515625,3,136.835205078125,196.48583984375,78.347412109375,0.0,0.0,0.0,0.0,0.0,-0.0,0.0011111111111111111,-0.2,1.85,9.63,11.797445952
1671150905.7272303,0,-145.53985595703125,196.63818359375,78.988037109375,1,-28.6683349609375,117.8134765625,-288.14306640625,2,25.4169921875,118.63037109375,-289.47705078125,3,136.805419921875,196.375244140625,78.356689453125,0.0,0.0,0.0,0.0,0.0,-0.0,0.0011111111111111111,-0.2,1.85,9.63,11.797445952
1671150905.7373626,0,-145.48309326171875,196.635986328125,79.003662109375,1,-28.67596435546875,117.794921875,-288.089111328125,2,25.3880615234375,118.641845703125,-289.469482421875,3,136.8416748046875,196.47900390625,78.31884765625,0.0,0.0,0.0,0.0,0.0,-0.0,0.0011111111111111111,-0.2,1.85,9.63,11.797445952
1671150905.7473328,0,-145.49395751953125,196.6171875,78.96630859375,1,-28.61962890625,117.77490234375,-288.11572265625,2,25.4578857421875,118.614990234375,-289.46435546875,3,136.84619140625,196.48681640625,78.351318359375,0.0,0.0,0.0,0.0,0.0,-0.0,0.0011111111111111111,-0.2,1.85,9.63,11.797445952
1671150905.7573507,0,-145.529296875,196.638427734375,78.997802734375,1,-28.68975830078125,117.81787109375,-288.134521484375,2,25.382080078125,118.6650390625,-289.43701171875,3,136.868896484375,196.463134765625,78.3642578125,0.0,0.0,0.0,0.0,0.0,-0.0,0.0011111111111111111,-0.2,1.85,9.63,11.797445952
1671150905.767234,0,-145.52117919921875,196.612060546875,79.001220703125,1,-28.70281982421875,117.798828125,-288.11669921875,2,25.35400390625,118.65673828125,-289.431396484375,3,136.863525390625,196.472900390625,78.341064453125,0.0,0.0,0.0,0.0,0.0,-0.0,0.0011111111111111111,-0.2,1.85,9.63,11.797445952
1671150905.7772315,0,-145.5859375,196.6923828125,78.97119140625,1,-28.65655517578125,117.801513671875,-288.148193359375,2,25.39501953125,118.607666015625,-289.44287109375,3,136.8148193359375,196.35302734375,78.33935546875,0.0,0.0,0.0,0.0,0.0,-0.0,0.0011111111111111111,-0.2,1.85,9.63,11.797445952
1671150905.7872388,0,-145.606689453125,196.70849609375,78.9755859375,1,-28.5423583984375,117.731689453125,-288.178955078125,2,25.39501953125,118.638427734375,-289.430908203125,3,136.8035888671875,196.44384765625,78.35888671875,0.0,0.0,0.0,0.0,0.0,-0.0022222222222222222,0.0022222222222222222,-0.19,1.84,9.7,11.813913632
1671150905.7972612,0,-145.52630615234375,196.618896484375,78.96923828125,1,-28.67376708984375,117.8388671875,-288.12744140625,2,25.4117431640625,118.66748046875,-289.47021484375,3,136.9024658203125,196.494384765625,78.34765625,0.0,0.0,0.0,0.0,0.0,-0.0022222222222222222,0.0022222222222222222,-0.19,1.84,9.7,11.813913632
1671150905.8073072,0,-145.60113525390625,196.6494140625,78.975830078125,1,-28.704345703125,117.826416015625,-288.115478515625,2,25.3343505859375,118.64404296875,-289.46044921875,3,136.855224609375,196.438232421875,78.3798828125,0.0,0.0,0.0,0.0,-0.0022222222222222222,-0.0022222222222222222,0.0022222222222222222,-0.22,1.86,9.62,11.817207168000001
1671150905.817244,0,-145.53277587890625,196.605712890625,78.97509765625,1,-28.7041015625,117.769287109375,-288.09912109375,2,25.3228759765625,118.630859375,-289.455322265625,3,136.840087890625,196.526611328125,78.3154296875,0.0,0.0,0.0,0.0,-0.0022222222222222222,-0.0022222222222222222,0.0022222222222222222,-0.22,1.86,9.62,11.817207168000001
1671150905.8272254,0,-145.50933837890625,196.7041015625,78.96826171875,1,-28.70465087890625,117.833251953125,-288.09765625,2,25.4112548828125,118.63671875,-289.48193359375,3,136.8529052734375,196.417724609375,78.33447265625,0.0,0.0,0.0,0.0,-0.0022222222222222222,-0.0022222222222222222,0.0022222222222222222,-0.22,1.86,9.62,11.817207168000001
1671150905.8372262,0,-145.52020263671875,196.640869140625,78.989501953125,1,-28.7225341796875,117.84521484375,-288.098876953125,2,25.359130859375,118.62744140625,-289.44775390625,3,136.857177734375,196.4208984375,78.35546875,0.0,0.0,0.0,0.0,-0.0022222222222222222,-0.0022222222222222222,0.0022222222222222222,-0.22,1.86,9.62,11.817207168000001
1671150905.847245,0,-145.48773193359375,196.630615234375,78.9658203125,1,-28.66986083984375,117.83837890625,-288.114990234375,2,25.3641357421875,118.691650390625,-289.468017578125,3,136.808349609375,196.46337890625,78.359130859375,0.0,0.0,0.0,0.0,-0.0022222222222222222,-0.0022222222222222222,0.0022222222222222222,-0.22,1.86,9.62,11.817207168000001
1671150905.8572998,0,-145.60833740234375,196.6962890625,78.94873046875,1,-28.70538330078125,117.802978515625,-288.096923828125,2,25.2943115234375,118.722412109375,-289.43505859375,3,136.834228515625,196.4853515625,78.35302734375,0.0,0.0,0.0,0.0,-0.0022222222222222222,-0.0022222222222222222,0.0022222222222222222,-0.22,1.86,9.62,11.817207168000001
1671150905.867226,0,-145.50579833984375,196.615966796875,78.966796875,1,-28.6309814453125,117.737548828125,-288.120849609375,2,25.3232421875,118.635986328125,-289.45166015625,3,136.837890625,196.471435546875,78.346435546875,0.0,0.0,0.0,0.0,0.0,-0.0,-0.0,-0.2,1.85,9.58,11.817207168000001
1671150905.8772304,0,-145.54315185546875,196.655517578125,78.9833984375,1,-28.7001953125,117.853271484375,-288.11474609375,2,25.38134765625,118.668701171875,-289.49609375,3,136.8115234375,196.419189453125,78.3505859375,0.0,0.0,0.0,0.0,0.0,-0.0,-0.0,-0.2,1.85,9.58,11.817207168000001
1671150905.887225,0,-145.52923583984375,196.6552734375,78.979736328125,1,-28.64080810546875,117.790771484375,-288.145751953125,2,25.3658447265625,118.689697265625,-289.44091796875,3,136.855224609375,196.4189453125,78.379150390625,0.0,0.0,0.0,0.0,0.0,-0.0,-0.0,-0.2,1.85,9.58,11.817207168000001
1671150905.8972566,0,-145.5269775390625,196.697998046875,78.933349609375,1,-28.663818359375,117.807373046875,-288.108642578125,2,25.4544677734375,118.557861328125,-289.44677734375,3,136.87939453125,196.428466796875,78.3720703125,0.0,0.0,0.0,0.0,0.0,-0.0,-0.0,-0.2,1.85,9.58,11.817207168000001
1671150905.90732,0,-145.5355224609375,196.692626953125,78.99072265625,1,-28.81689453125,117.897216796875,-288.103759765625,2,25.45556640625,118.5615234375,-289.465087890625,3,136.843017578125,196.486083984375,78.34912109375,0.0,0.0,0.0,0.0,0.0,-0.0,-0.0,-0.2,1.85,9.58,11.817207168000001
1671150905.917218,0,-145.5206298828125,196.632080078125,78.95166015625,1,-28.6326904296875,117.731689453125,-288.141357421875,2,25.318603515625,118.61279296875,-289.4091796875,3,136.854248046875,196.4482421875,78.397216796875,0.0,0.0,0.0,0.0,0.0022222222222222222,-0.0033333333333333335,0.0011111111111111111,-0.18,1.85,9.6,11.804033024
1671150905.9272346,0,-145.5291748046875,196.670654296875,78.99169921875,1,-28.56103515625,117.732177734375,-288.119140625,2,25.30908203125,118.6572265625,-289.410888671875,3,136.8116455078125,196.392333984375,78.347412109375,0.0,0.0,0.0,0.0,0.0022222222222222222,-0.0033333333333333335,0.0011111111111111111,-0.18,1.85,9.6,11.804033024
1671150905.9372244,0,-145.54266357421875,196.671875,78.979248046875,1,-28.6787109375,117.849609375,-288.12646484375,2,25.25,118.645751953125,-289.419921875,3,136.802001953125,196.4345703125,78.35205078125,0.0,0.0,0.0,0.0,0.0022222222222222222,-0.0033333333333333335,0.0011111111111111111,-0.18,1.85,9.6,11.804033024
1671150905.9472494,0,-145.5047607421875,196.61572265625,78.9638671875,1,-28.69073486328125,117.815673828125,-288.145751953125,2,25.39990234375,118.61572265625,-289.459716796875,3,136.9239501953125,196.409423828125,78.353271484375,0.0,0.0,0.0,0.0,0.0022222222222222222,-0.0033333333333333335,0.0011111111111111111,-0.18,1.85,9.6,11.804033024
1671150905.9573314,0,-145.558837890625,196.704345703125,78.96337890625,1,-28.69622802734375,117.824462890625,-288.142822265625,2,25.33056640625,118.650634765625,-289.4130859375,3,136.8089599609375,196.495361328125,78.349365234375,0.0,0.0,0.0,0.0,0.0022222222222222222,-0.0033333333333333335,0.0011111111111111111,-0.18,1.85,9.6,11.804033024
1671150905.967225,0,-145.48516845703125,196.644775390625,78.957763671875,1,-28.69476318359375,117.7802734375,-288.14794921875,2,25.302001953125,118.635009765625,-289.435302734375,3,136.8590087890625,196.479736328125,78.35986328125,0.0,0.0,0.0,0.0,0.0022222222222222222,-0.0033333333333333335,0.0011111111111111111,-0.18,1.85,9.6,11.804033024
1671150905.9772332,0,-145.528076171875,196.698974609375,78.977294921875,1,-28.69866943359375,117.838623046875,-288.117919921875,2,25.3587646484375,118.671142578125,-289.463134765625,3,136.839599609375,196.40869140625,78.34912109375,0.0,0.0,0.0,0.0,0.0,-0.0,-0.0,-0.19,1.84,9.58,11.797445952
1671150905.9872243,0,-145.49481201171875,196.6923828125,78.979736328125,1,-28.76995849609375,117.84619140625,-288.131591796875,2,25.280029296875,118.64404296875,-289.39794921875,3,136.8507080078125,196.427734375,78.332763671875,0.0,0.0,0.0,0.0,0.0,-0.0,-0.0,-0.19,1.84,9.58,11.797445952
1671150905.9972358,0,-145.49853515625,196.7021484375,78.9716796875,1,-28.813720703125,117.888671875,-288.10107421875,2,25.3348388671875,118.6484375,-289.442626953125,3,136.8931884765625,196.488525390625,78.34130859375,0.0,0.0,0.0,0.0,0.0,-0.0,-0.0,-0.19,1.84,9.58,11.797445952
1671150906.0073102,0,-145.52557373046875,196.740478515625,78.9736328125,1,-28.71478271484375,117.818115234375,-288.112060546875,2,25.3406982421875,118.669921875,-289.469482421875,3,136.8045654296875,196.4658203125,78.354248046875,0.0,0.0,0.0,0.0,0.0,-0.0,-0.0,-0.19,1.84,9.58,11.797445952
1671150906.0171897,0,-145.5198974609375,196.62841796875,78.959228515625,1,-28.64874267578125,117.74462890625,-288.102783203125,2,25.260009765625,118.58251953125,-289.391357421875,3,136.8907470703125,196.442626953125,78.33837890625,0.0,0.0,0.0,0.0,-0.0011111111111111111,0.0022222222222222222,-0.0,-0.2,1.84,9.57,11.794152416000001
1671150906.0272167,0,-145.5401611328125,196.6611328125,78.994140625,1,-28.7567138671875,117.86474609375,-288.130126953125,2,25.45947265625,118.591064453125,-289.469482421875,3,136.886474609375,196.366455078125,78.328369140625,0.0,0.0,0.0,0.0,-0.0011111111111111111,0.0022222222222222222,-0.0,-0.2,1.84,9.57,11.794152416000001
1671150906.0372105,0,-145.54852294921875,196.681396484375,78.985595703125,1,-28.71954345703125,117.8759765625,-288.1240234375,2,25.361572265625,118.65283203125,-289.453857421875,3,136.845947265625,196.398681640625,78.348876953125,0.0,0.0,0.0,0.0,-0.0011111111111111111,0.0022222222222222222,-0.0,-0.2,1.84,9.57,11.794152416000001
1671150906.0472288,0,-145.4927978515625,196.62451171875,78.9912109375,1,-28.7679443359375,117.86181640625,-288.126708984375,2,25.3458251953125,118.680908203125,-289.472412109375,3,136.8409423828125,196.462158203125,78.3408203125,0.0,0.0,0.0,0.0,-0.0011111111111111111,0.0022222222222222222,-0.0,-0.2,1.84,9.57,11.794152416000001
1671150906.0572264,0,-145.56060791015625,196.610595703125,79.008056640625,1,-28.718994140625,117.846923828125,-288.098876953125,2,25.363037109375,118.60009765625,-289.4169921875,3,136.9285888671875,196.443603515625,78.3486328125,0.0,0.0,0.0,0.0,-0.0011111111111111111,0.0022222222222222222,-0.0,-0.2,1.84,9.57,11.794152416000001
1671150906.0672362,0,-145.54473876953125,196.63720703125,78.976806640625,1,-28.7677001953125,117.81396484375,-288.1162109375,2,25.265625,118.6533203125,-289.38330078125,3,136.9010009765625,196.4697265625,78.358642578125,0.0,0.0,0.0,0.0,-0.0011111111111111111,0.0022222222222222222,-0.0,-0.2,1.84,9.57,11.794152416000001
1671150906.077222,0,-145.51202392578125,196.628662109375,78.97705078125,1,-28.75958251953125,117.88134765625,-288.11669921875,2,25.298828125,118.65966796875,-289.439697265625,3,136.8443603515625,196.41455078125,78.34765625,0.0,0.0,0.0,0.0,0.0,0.0011111111111111111,-0.0011111111111111111,-0.2,1.85,9.62,11.794152416000001
1671150906.0872288,0,-145.61419677734375,196.623046875,78.994384765625,1,-28.66192626953125,117.82275390625,-288.1484375,2,25.196533203125,118.71240234375,-289.3974609375,3,136.8079833984375,196.41943359375,78.326904296875,0.0,0.0,0.0,0.0,0.0,0.0011111111111111111,-0.0011111111111111111,-0.2,1.85,9.62,11.794152416000001
1671150906.097207,0,-145.51055908203125,196.6201171875,78.953857421875,1,-28.6873779296875,117.86181640625,-288.134521484375,2,25.2969970703125,118.654052734375,-289.45166015625,3,136.8419189453125,196.45556640625,78.351318359375,0.0,0.0,0.0,0.0,0.0,0.0011111111111111111,-0.0011111111111111111,-0.2,1.85,9.62,11.794152416000001
1671150906.1073215,0,-145.5343017578125,196.660888671875,79.00927734375,1,-28.62884521484375,117.808837890625,-288.135009765625,2,25.3408203125,118.66064453125,-289.463134765625,3,136.896728515625,196.468017578125,78.356201171875,0.0,0.0,0.0,0.0,0.0,0.0011111111111111111,-0.0011111111111111111,-0.2,1.85,9.62,11.794152416000001
1671150906.117191,0,-145.51641845703125,196.640625,78.989990234375,1,-28.69732666015625,117.78662109375,-288.0751953125,2,25.35546875,118.6396484375,-289.403076171875,3,136.8609619140625,196.49560546875,78.358642578125,0.0,0.0,0.0,0.0,-0.28444444444444444,0.0011111111111111111,-0.0,-0.2,1.85,9.6,11.813913632
1671150906.1272163,0,-145.53350830078125,196.639892578125,79.012939453125,1,-28.71685791015625,117.8369140625,-288.115966796875,2,25.3385009765625,118.63232421875,-289.41796875,3,136.820556640625,196.419189453125,78.34228515625,0.0,0.0,0.0,0.0,-0.28444444444444444,0.0011111111111111111,-0.0,-0.2,1.85,9.6,11.813913632
1671150906.137214,0,-145.50250244140625,196.65673828125,79.00146484375,1,-28.64837646484375,117.82275390625,-288.123291015625,2,25.2490234375,118.70361328125,-289.43310546875,3,136.8123779296875,196.39794921875,78.356201171875,0.0,0.0,0.0,0.0,-0.28444444444444444,0.0011111111111111111,-0.0,-0.2,1.85,9.6,11.813913632
1671150906.1472087,0,-145.48370361328125,196.629150390625,78.97216796875,1,-28.7503662109375,117.867919921875,-288.108642578125,2,25.3326416015625,118.651611328125,-289.4404296875,3,136.8099365234375,196.5185546875,78.3251953125,0.0,0.0,0.0,0.0,-0.28444444444444444,0.0011111111111111111,-0.0,-0.2,1.85,9.6,11.813913632
1671150906.1572669,0,-145.54315185546875,196.6728515625,78.97705078125,1,-28.7535400390625,117.858642578125,-288.108154296875,2,25.44384765625,118.60693359375,-289.45263671875,3,136.86865234375,196.488037109375,78.34375,0.0,0.0,0.0,0.0,-0.28444444444444444,0.0011111111111111111,-0.0,-0.2,1.85,9.6,11.813913632
1671150906.1672838,0,-145.53155517578125,196.61083984375,78.965576171875,1,-28.70794677734375,117.768798828125,-288.0830078125,2,25.3692626953125,118.59375,-289.460205078125,3,136.9254150390625,196.476806640625,78.387451171875,0.0,0.0,0.0,0.0,0.0022222222222222222,-0.0022222222222222222,-0.0,-0.2,1.84,9.57,11.813913632
1671150906.1773376,0,-145.51947021484375,196.654296875,78.961181640625,1,-28.68731689453125,117.818359375,-288.1171875,2,25.6085205078125,118.642578125,-289.58984375,3,136.7733154296875,196.4248046875,78.372802734375,0.0,0.0,0.0,0.0,0.0022222222222222222,-0.0022222222222222222,-0.0,-0.2,1.84,9.57,11.813913632
1671150906.1873534,0,-145.51251220703125,196.61572265625,78.990234375,1,-28.6351318359375,117.75732421875,-288.122314453125,2,25.4141845703125,118.67041015625,-289.417236328125,3,136.8028564453125,196.439697265625,78.3466796875,0.0,0.0,0.0,0.0,0.0022222222222222222,-0.0022222222222222222,-0.0,-0.2,1.84,9.57,11.813913632
1671150906.1973145,0,-145.46539306640625,196.594482421875,78.9814453125,1,-28.70001220703125,117.7734375,-288.098876953125,2,25.3782958984375,118.7001953125,-289.478271484375,3,136.851806640625,196.487548828125,78.338134765625,0.0,0.0,0.0,0.0,0.0022222222222222222,-0.0022222222222222222,-0.0,-0.2,1.84,9.57,11.813913632
1671150906.2073371,0,-145.49993896484375,196.646240234375,78.99560546875,1,-28.71807861328125,117.855712890625,-288.146240234375,2,25.3555908203125,118.6552734375,-289.437255859375,3,136.903076171875,196.4501953125,78.392333984375,0.0,0.0,0.0,0.0,0.0022222222222222222,-0.0022222222222222222,-0.0,-0.2,1.84,9.57,11.813913632
1671150906.2173026,0,-145.55389404296875,196.60595703125,79.001708984375,1,-28.67718505859375,117.81884765625,-288.13427734375,2,25.380126953125,118.61962890625,-289.417236328125,3,136.86767578125,196.43408203125,78.37255859375,0.0,0.0,0.0,0.0,-0.0011111111111111111,0.28444444444444444,-0.0,-0.21,1.86,9.6,11.820500704
1671150906.2273252,0,-145.50543212890625,196.6376953125,78.99365234375,1,-28.60052490234375,117.794189453125,-288.160888671875,2,25.329833984375,118.667236328125,-289.3984375,3,136.86865234375,196.412841796875,78.3583984375,0.0,0.0,0.0,0.0,-0.0011111111111111111,0.28444444444444444,-0.0,-0.21,1.86,9.6,11.820500704
1671150906.2372909,0,-145.48516845703125,196.55517578125,78.982421875,1,-28.7880859375,117.89306640625,-288.137939453125,2,25.3499755859375,118.657470703125,-289.41455078125,3,136.8355712890625,196.40380859375,78.3330078125,0.0,0.0,0.0,0.0,-0.0011111111111111111,0.28444444444444444,-0.0,-0.21,1.86,9.6,11.820500704
1671150906.2473032,0,-145.4388427734375,196.57080078125,78.9814453125,1,-28.6837158203125,117.8515625,-288.143798828125,2,25.3228759765625,118.69970703125,-289.4462890625,3,136.8662109375,196.47265625,78.3837890625,0.0,0.0,0.0,0.0,-0.0011111111111111111,0.28444444444444444,-0.0,-0.21,1.86,9.6,11.820500704
1671150906.2572978,0,-145.49560546875,196.666259765625,78.999267578125,1,-28.62750244140625,117.812744140625,-288.133544921875,2,25.388671875,118.65283203125,-289.45849609375,3,136.865234375,196.49755859375,78.36474609375,0.0,0.0,0.0,0.0,-0.0011111111111111111,0.28444444444444444,-0.0,-0.21,1.86,9.6,11.820500704
1671150906.2672744,0,-145.49810791015625,196.5966796875,78.976806640625,1,-28.68695068359375,117.767333984375,-288.10400390625,2,25.3250732421875,118.62939453125,-289.44677734375,3,136.8585205078125,196.466796875,78.388916015625,0.0,0.0,0.0,0.0,0.0,0.0011111111111111111,-0.0022222222222222222,-0.2,1.83,9.58,11.79085888
1671150906.2772133,0,-145.53240966796875,196.64208984375,78.993408203125,1,-28.7493896484375,117.861572265625,-288.14794921875,2,25.410888671875,118.6181640625,-289.510986328125,3,136.8070068359375,196.483642578125,78.361572265625,0.0,0.0,0.0,0.0,0.0,0.0011111111111111111,-0.0022222222222222222,-0.2,1.83,9.58,11.79085888
1671150906.2872553,0,-145.58270263671875,196.62744140625,78.984619140625,1,-28.63641357421875,117.811767578125,-288.159912109375,2,25.335205078125,118.67529296875,-289.429443359375,3,136.822265625,196.447021484375,78.34619140625,0.0,0.0,0.0,0.0,0.0,0.0011111111111111111,-0.0022222222222222222,-0.2,1.83,9.58,11.79085888
1671150906.2972999,0,-145.47210693359375,196.57421875,78.971435546875,1,-28.6925048828125,117.865478515625,-288.146484375,2,25.4300537109375,118.600341796875,-289.4892578125,3,136.83837890625,196.409912109375,78.333740234375,0.0,0.0,0.0,0.0,0.0,0.0011111111111111111,-0.0022222222222222222,-0.2,1.83,9.58,11.79085888
1671150906.307368,0,-145.5062255859375,196.67236328125,78.9658203125,1,-28.684814453125,117.8232421875,-288.1025390625,2,25.48388671875,118.602783203125,-289.503173828125,3,136.8695068359375,196.44482421875,78.34375,0.0,0.0,0.0,0.0,0.0,0.0011111111111111111,-0.0022222222222222222,-0.2,1.83,9.58,11.79085888
1671150906.3173652,0,-145.4449462890625,196.623046875,78.94921875,1,-28.78045654296875,117.80712890625,-288.10107421875,2,25.277587890625,118.6171875,-289.4208984375,3,136.8984375,196.502685546875,78.34814453125,0.0,0.0,0.0,0.0,0.0,0.0011111111111111111,-0.0022222222222222222,-0.2,1.83,9.58,11.79085888
1671150906.3273313,0,-145.5440673828125,196.67236328125,78.9716796875,1,-28.77691650390625,117.820068359375,-288.122802734375,2,25.4248046875,118.625732421875,-289.464599609375,3,136.8355712890625,196.435546875,78.3525390625,0.0,0.0,0.0,0.0,0.0,-0.0,0.0022222222222222222,-0.21,1.84,9.58,11.817207168000001
1671150906.3373294,0,-145.517578125,196.656982421875,78.985107421875,1,-28.68048095703125,117.8291015625,-288.12939453125,2,25.3277587890625,118.677001953125,-289.41455078125,3,136.831298828125,196.417724609375,78.34716796875,0.0,0.0,0.0,0.0,0.0,-0.0,0.0022222222222222222,-0.21,1.84,9.58,11.817207168000001
1671150906.347342,0,-145.489501953125,196.62353515625,78.95947265625,1,-28.80328369140625,117.880615234375,-288.1015625,2,25.421142578125,118.632080078125,-289.43603515625,3,136.8912353515625,196.4384765625,78.36279296875,0.0,0.0,0.0,0.0,0.0,-0.0,0.0022222222222222222,-0.21,1.84,9.58,11.817207168000001
1671150906.3572974,0,-145.50457763671875,196.683349609375,78.9951171875,1,-28.72930908203125,117.879150390625,-288.099365234375,2,25.4273681640625,118.60986328125,-289.4111328125,3,136.834716796875,196.46044921875,78.365966796875,0.0,0.0,0.0,0.0,0.0,-0.0,0.0022222222222222222,-0.21,1.84,9.58,11.817207168000001
1671150906.3673208,0,-145.5374755859375,196.643798828125,78.973388671875,1,-28.7283935546875,117.817626953125,-288.08740234375,2,25.29833984375,118.658935546875,-289.41943359375,3,136.8936767578125,196.499267578125,78.325927734375,0.0,0.0,0.0,0.0,0.0,-0.0,0.0022222222222222222,-0.21,1.84,9.58,11.817207168000001
1671150906.377345,0,-145.492431640625,196.6806640625,78.979248046875,1,-28.72137451171875,117.833251953125,-288.079833984375,2,25.3734130859375,118.677978515625,-289.4599609375,3,136.82470703125,196.408203125,78.3427734375,0.0,0.0,0.0,0.0,0.0011111111111111111,-0.0,-0.0011111111111111111,-0.21,1.85,9.63,11.794152416000001
1671150906.387359,0,-145.52349853515625,196.671630859375,78.939453125,1,-28.70770263671875,117.834228515625,-288.102783203125,2,25.3388671875,118.6787109375,-289.435791015625,3,136.7921142578125,196.427490234375,78.345947265625,0.0,0.0,0.0,0.0,0.0011111111111111111,-0.0,-0.0011111111111111111,-0.21,1.85,9.63,11.794152416000001
1671150906.3973336,0,-145.49505615234375,196.58544921875,78.946533203125,1,-28.72845458984375,117.87158203125,-288.1474609375,2,25.423828125,118.61376953125,-289.464599609375,3,136.8431396484375,196.498291015625,78.3427734375,0.0,0.0,0.0,0.0,0.0011111111111111111,-0.0,-0.0011111111111111111,-0.21,1.85,9.63,11.794152416000001
1671150906.4073398,0,-145.5035400390625,196.662109375,78.992919921875,1,-28.6845703125,117.84521484375,-288.126953125,2,25.488037109375,118.61767578125,-289.491943359375,3,136.8193359375,196.48095703125,78.370849609375,0.0,0.0,0.0,0.0,0.0011111111111111111,-0.0,-0.0011111111111111111,-0.21,1.85,9.63,11.794152416000001
1671150906.4172857,0,-145.4442138671875,196.66015625,78.96728515625,1,-28.6607666015625,117.7578125,-288.111572265625,2,25.322265625,118.672119140625,-289.451171875,3,136.821044921875,196.446044921875,78.36376953125,0.0,0.0,0.0,0.0,0.0022222222222222222,-0.0011111111111111111,0.0022222222222222222,-0.2,1.84,9.58,11.794152416000001
1671150906.4272385,0,-145.53814697265625,196.654296875,78.968994140625,1,-28.70330810546875,117.84033203125,-288.11962890625,2,25.360107421875,118.681640625,-289.48388671875,3,136.849609375,196.4072265625,78.336181640625,0.0,0.0,0.0,0.0,0.0022222222222222222,-0.0011111111111111111,0.0022222222222222222,-0.2,1.84,9.58,11.794152416000001
1671150906.4372973,0,-145.610595703125,196.6396484375,78.978759765625,1,-28.7567138671875,117.864990234375,-288.10791015625,2,25.3306884765625,118.673583984375,-289.464599609375,3,136.8272705078125,196.458740234375,78.349365234375,0.0,0.0,0.0,0.0,0.0022222222222222222,-0.0011111111111111111,0.0022222222222222222,-0.2,1.84,9.58,11.794152416000001
1671150906.4474325,0,-145.55767822265625,196.66796875,78.9912109375,1,-28.68487548828125,117.776611328125,-288.08935546875,2,25.2962646484375,118.73193359375,-289.446533203125,3,136.805908203125,196.448486328125,78.346435546875,0.0,0.0,0.0,0.0,0.0022222222222222222,-0.0011111111111111111,0.0022222222222222222,-0.2,1.84,9.58,11.794152416000001
1671150906.4572895,0,-145.5576171875,196.678955078125,78.973876953125,1,-28.6690673828125,117.82080078125,-288.13427734375,2,25.3902587890625,118.68408203125,-289.489501953125,3,136.939697265625,196.44140625,78.35791015625,0.0,0.0,0.0,0.0,0.0022222222222222222,-0.0011111111111111111,0.0022222222222222222,-0.2,1.84,9.58,11.794152416000001
1671150906.4672713,0,-145.52166748046875,196.5888671875,78.965576171875,1,-28.6881103515625,117.756103515625,-288.083984375,2,25.3531494140625,118.634521484375,-289.439697265625,3,136.858642578125,196.4736328125,78.384765625,0.0,0.0,0.0,0.0,0.0022222222222222222,-0.0011111111111111111,0.0022222222222222222,-0.2,1.84,9.58,11.794152416000001
1671150906.4773126,0,-145.5721435546875,196.664306640625,79.0146484375,1,-28.623291015625,117.77587890625,-288.1103515625,2,25.439208984375,118.63818359375,-289.47802734375,3,136.8507080078125,196.422607421875,78.3525390625,0.0,0.0,0.0,0.0,0.0011111111111111111,0.0011111111111111111,0.0022222222222222222,-0.21,1.88,9.6,11.810620096000001
1671150906.4873357,0,-145.54876708984375,196.611328125,79.0087890625,1,-28.6932373046875,117.84228515625,-288.146484375,2,25.2901611328125,118.686767578125,-289.435302734375,3,136.835693359375,196.444091796875,78.348388671875,0.0,0.0,0.0,0.0,0.0011111111111111111,0.0011111111111111111,0.0022222222222222222,-0.21,1.88,9.6,11.810620096000001
1671150906.497323,0,-145.55157470703125,196.589111328125,78.985107421875,1,-28.76470947265625,117.863037109375,-288.127685546875,2,25.381591796875,118.693359375,-289.469482421875,3,136.9228515625,196.453125,78.371337890625,0.0,0.0,0.0,0.0,0.0011111111111111111,0.0011111111111111111,0.0022222222222222222,-0.21,1.88,9.6,11.810620096000001
1671150906.5073364,0,-145.54351806640625,196.5712890625,79.02685546875,1,-28.75,117.84228515625,-288.1455078125,2,25.397705078125,118.65478515625,-289.465576171875,3,136.871826171875,196.45458984375,78.364990234375,0.0,0.0,0.0,0.0,0.0,0.0011111111111111111,0.0022222222222222222,-0.22,1.83,9.6,11.777684736000001
1671150906.5173461,0,-145.50006103515625,196.607666015625,78.98486328125,1,-28.6798095703125,117.748291015625,-288.097412109375,2,25.3360595703125,118.66162109375,-289.437255859375,3,136.870361328125,196.51220703125,78.354248046875,0.0,0.0,0.0,0.0,0.0,0.0011111111111111111,0.0022222222222222222,-0.22,1.83,9.6,11.777684736000001
1671150906.5273323,0,-145.54986572265625,196.65625,78.98046875,1,-28.6806640625,117.855224609375,-288.12109375,2,25.3941650390625,118.65966796875,-289.473388671875,3,136.853759765625,196.451416015625,78.32177734375,0.0,0.0,0.0,0.0,0.0,0.0011111111111111111,0.0022222222222222222,-0.22,1.83,9.6,11.777684736000001
1671150906.53733,0,-145.55029296875,196.6318359375,79.012939453125,1,-28.67681884765625,117.8017578125,-288.1337890625,2,25.3525390625,118.639404296875,-289.46142578125,3,136.8004150390625,196.442138671875,78.33837890625,0.0,0.0,0.0,0.0,0.0,0.0011111111111111111,0.0022222222222222222,-0.22,1.83,9.6,11.777684736000001
1671150906.547337,0,-145.52886962890625,196.605712890625,78.98095703125,1,-28.81005859375,117.901123046875,-288.133544921875,2,25.503662109375,118.593994140625,-289.485595703125,3,136.880126953125,196.478271484375,78.3466796875,0.0,0.0,0.0,0.0,0.0,0.0011111111111111111,0.0022222222222222222,-0.22,1.83,9.6,11.777684736000001
1671150906.5573685,0,-145.56634521484375,196.67041015625,78.96923828125,1,-28.69830322265625,117.786865234375,-288.100830078125,2,25.4810791015625,118.63427734375,-289.4970703125,3,136.8968505859375,196.448974609375,78.37255859375,0.0,0.0,0.0,0.0,0.0,0.0011111111111111111,0.0022222222222222222,-0.22,1.83,9.6,11.777684736000001
1671150906.567225,0,-145.54388427734375,196.60791015625,78.97802734375,1,-28.641845703125,117.736083984375,-288.12451171875,2,25.3875732421875,118.6552734375,-289.455810546875,3,136.929931640625,196.469482421875,78.359130859375,0.0,0.0,0.0,0.0,0.0,0.0011111111111111111,0.0022222222222222222,-0.22,1.83,9.6,11.777684736000001
1671150906.5773132,0,-145.6136474609375,196.681640625,78.982177734375,1,-28.49908447265625,117.68994140625,-288.161376953125,2,25.4833984375,118.628173828125,-289.519287109375,3,136.8642578125,196.44482421875,78.333251953125,0.0,0.0,0.0,0.0,0.0,0.0011111111111111111,-0.0,-0.2,1.85,9.63,11.787565344
1671150906.5873554,0,-145.57550048828125,196.60498046875,79.0205078125,1,-28.652099609375,117.80908203125,-288.117431640625,2,25.389404296875,118.650390625,-289.461181640625,3,136.8687744140625,196.444580078125,78.333740234375,0.0,0.0,0.0,0.0,0.0,0.0011111111111111111,-0.0,-0.2,1.85,9.63,11.787565344
1671150906.5973313,0,-145.50933837890625,196.62890625,78.9833984375,1,-28.59307861328125,117.78466796875,-288.150634765625,2,25.443115234375,118.658447265625,-289.48779296875,3,136.890625,196.467041015625,78.335693359375,0.0,0.0,0.0,0.0,0.0,0.0011111111111111111,-0.0,-0.2,1.85,9.63,11.787565344
1671150906.60733,0,-145.52044677734375,196.63037109375,78.975341796875,1,-28.65155029296875,117.818603515625,-288.1533203125,2,25.474853515625,118.591064453125,-289.51220703125,3,136.86865234375,196.489013671875,78.333740234375,0.0,0.0,0.0,0.0,0.0,0.0011111111111111111,-0.0,-0.2,1.85,9.63,11.787565344
1671150906.6174283,0,-145.517822265625,196.528564453125,78.994140625,1,-28.6678466796875,117.771484375,-288.115234375,2,25.40771484375,118.621337890625,-289.461669921875,3,136.8580322265625,196.456787109375,78.3515625,0.0,0.0,0.0,0.0,0.0,0.0011111111111111111,-0.0,-0.2,1.85,9.63,11.787565344
