Time,Marker0_ID,Marker0_x,Marker0_y,Marker0_z,Marker1_ID,Marker1_x,Marker1_y,Marker1_z,Marker2_ID,Marker2_x,Marker2_y,Marker2_z,Marker3_ID,Marker3_x,Marker3_y,Marker3_z,thetaR,thetaL,dutyR,dutyL,wx,wy,wz,ax,ay,az,Vbatt
1671151403.7692864,0,0,0,0,0,0,0,0,0,0,0,0,0,0,0,0,0,0,0,0,0,0,0,0,0,0,0
1671151403.7793407,0,-112.425048828125,195.60302734375,90.3408203125,1,-102.11248779296875,115.13037109375,-293.760498046875,2,-50.729736328125,116.235595703125,-309.0244140625,3,158.0821533203125,196.310302734375,10.512451171875,0,0,0,0,0,0,0,0,0,0,0
1671151403.789325,0,-112.3956298828125,195.58544921875,90.31982421875,1,-102.11962890625,115.129150390625,-293.753173828125,2,-50.7127685546875,116.2392578125,-309.056396484375,3,158.0748291015625,196.315185546875,10.47900390625,0,0,0,0,0,0,0,0,0,0,0
1671151403.7994053,0,-112.48199462890625,195.580322265625,90.36669921875,1,-102.1146240234375,115.1484375,-293.751708984375,2,-50.695068359375,116.150390625,-308.995849609375,3,158.0821533203125,196.297607421875,10.4951171875,0,0,0,0,0,0,0,0,0,0,0
1671151403.8093245,0,-112.5252685546875,195.482177734375,90.3828125,1,-102.11767578125,115.1572265625,-293.75244140625,2,-50.83538818359375,116.254638671875,-309.074462890625,3,158.0751953125,196.287353515625,10.4765625,0,0,0,0,0,0,0,0,0,0,0
1671151403.8193812,0,-112.5386962890625,195.459716796875,90.3671875,1,-102.1318359375,115.109375,-293.7509765625,2,-50.70233154296875,116.1962890625,-309.06201171875,3,158.0819091796875,196.30029296875,10.495849609375,0,0,0,0,0,0,0,0,0,0,0
1671151403.8293986,0,-112.4776611328125,195.53955078125,90.383056640625,1,-102.144287109375,115.14794921875,-293.76953125,2,-50.7022705078125,116.190673828125,-309.034912109375,3,158.1019287109375,196.33447265625,10.500732421875,0,0,0,0,0,0,0,0,0,0,0
1671151403.8394032,0,-112.43804931640625,195.54736328125,90.343994140625,1,-102.1318359375,115.118896484375,-293.719482421875,2,-50.736083984375,116.239990234375,-309.046875,3,158.1319580078125,196.286865234375,10.47509765625,0.0,0.0,0.0,0.0,-0.0011111111111111111,-0.0011111111111111111,-0.0011111111111111111,-0.16,1.83,9.68,11.74145584
1671151403.8494442,0,-112.50030517578125,195.521240234375,90.36669921875,1,-102.1231689453125,115.125,-293.733642578125,2,-50.68341064453125,116.18505859375,-309.068115234375,3,158.06103515625,196.281494140625,10.47705078125,0.0,0.0,0.0,0.0,-0.0011111111111111111,-0.0011111111111111111,-0.0011111111111111111,-0.16,1.83,9.68,11.74145584
1671151403.8593283,0,-112.45318603515625,195.54833984375,90.36181640625,1,-102.1307373046875,115.124755859375,-293.7392578125,2,-50.826416015625,116.22998046875,-309.0556640625,3,158.037109375,196.318115234375,10.468505859375,0.0,0.0,0.0,0.0,-0.0011111111111111111,-0.0011111111111111111,-0.0011111111111111111,-0.16,1.83,9.68,11.74145584
1671151403.869322,0,-112.578125,195.4765625,90.355712890625,1,-102.126708984375,115.132080078125,-293.770263671875,2,-50.69879150390625,116.1630859375,-309.079345703125,3,158.0946044921875,196.336669921875,10.49951171875,0.0,0.0,0.0,0.0,0.0022222222222222222,-0.0022222222222222222,-0.0,-0.16,1.82,9.62,11.748042912
1671151403.8793209,0,-112.45843505859375,195.545654296875,90.3603515625,1,-102.1365966796875,115.1279296875,-293.72998046875,2,-50.73297119140625,116.179443359375,-309.040771484375,3,158.11328125,196.321044921875,10.467529296875,0.0,0.0,0.0,0.0,0.0022222222222222222,-0.0022222222222222222,-0.0,-0.16,1.82,9.62,11.748042912
1671151403.8893244,0,-112.50653076171875,195.52880859375,90.39892578125,1,-102.137451171875,115.119384765625,-293.72998046875,2,-50.69464111328125,116.169189453125,-309.03662109375,3,158.128173828125,196.315185546875,10.491455078125,0.0,0.0,0.0,0.0,0.0022222222222222222,-0.0022222222222222222,-0.0,-0.16,1.82,9.62,11.748042912
1671151403.8993967,0,-112.4498291015625,195.56640625,90.378662109375,1,-102.1295166015625,115.136474609375,-293.734130859375,2,-50.74554443359375,116.2060546875,-309.060302734375,3,158.0887451171875,196.287841796875,10.477783203125,0.0,0.0,0.0,0.0,0.0022222222222222222,-0.0022222222222222222,-0.0,-0.16,1.82,9.62,11.748042912
1671151403.9093177,0,-112.470947265625,195.50537109375,90.37451171875,1,-102.1170654296875,115.138427734375,-293.749267578125,2,-50.79730224609375,116.152587890625,-309.054931640625,3,158.079345703125,196.272216796875,10.4638671875,0.0,0.0,0.0,0.0,0.0022222222222222222,-0.0022222222222222222,-0.0,-0.16,1.82,9.62,11.748042912
1671151403.9193194,0,-112.485595703125,195.4755859375,90.365234375,1,-102.11981201171875,115.14306640625,-293.751953125,2,-50.71063232421875,116.157958984375,-309.0576171875,3,158.1322021484375,196.33642578125,10.505615234375,0.0,0.0,0.0,0.0,-0.0033333333333333335,0.0033333333333333335,-0.0011111111111111111,-0.16,1.83,9.63,11.748042912
1671151403.9293244,0,-112.45867919921875,195.570068359375,90.351318359375,1,-102.118408203125,115.12060546875,-293.734375,2,-50.59197998046875,116.076904296875,-309.040283203125,3,158.09375,196.29931640625,10.47607421875,0.0,0.0,0.0,0.0,-0.0033333333333333335,0.0033333333333333335,-0.0011111111111111111,-0.16,1.83,9.63,11.748042912
1671151403.9393203,0,-112.44805908203125,195.5322265625,90.362060546875,1,-102.14532470703125,115.107666015625,-293.724365234375,2,-50.5916748046875,116.010498046875,-309.040283203125,3,158.079345703125,196.347900390625,10.466552734375,0.0,0.0,0.0,0.0,-0.0033333333333333335,0.0033333333333333335,-0.0011111111111111111,-0.16,1.83,9.63,11.748042912
1671151403.9494028,0,-112.542236328125,195.6298828125,90.3701171875,1,-102.1531982421875,115.1171875,-293.755615234375,2,-50.6279296875,116.072998046875,-309.049072265625,3,158.0537109375,196.3017578125,10.469970703125,0.0,0.0,0.0,0.0,-0.0033333333333333335,0.0033333333333333335,-0.0011111111111111111,-0.16,1.83,9.63,11.748042912
1671151403.95932,0,-112.4658203125,195.6044921875,90.367919921875,1,-102.134521484375,115.14599609375,-293.7607421875,2,-50.756591796875,116.10498046875,-309.055908203125,3,158.069091796875,196.309814453125,10.43115234375,0.0,0.0,0.0,0.0,-0.0033333333333333335,0.0033333333333333335,-0.0011111111111111111,-0.16,1.83,9.63,11.748042912
1671151403.9693239,0,-112.49578857421875,195.54296875,90.34765625,1,-102.119873046875,115.1552734375,-293.755126953125,2,-50.73809814453125,116.140869140625,-309.061279296875,3,158.1290283203125,196.31201171875,10.494873046875,0.0,0.0,0.0,0.0,-0.0033333333333333335,0.0033333333333333335,-0.0011111111111111111,-0.16,1.83,9.63,11.748042912
1671151403.9793222,0,-112.4940185546875,195.6357421875,90.33935546875,1,-102.10931396484375,115.123779296875,-293.72314453125,2,-50.712890625,116.138916015625,-309.03955078125,3,158.0999755859375,196.322998046875,10.4853515625,0.0,0.0,0.0,0.0,-0.0011111111111111111,0.0011111111111111111,-0.0011111111111111111,-0.14,1.83,9.6,11.72498816
1671151403.9893205,0,-112.50360107421875,195.569091796875,90.367431640625,1,-102.122314453125,115.120849609375,-293.73486328125,2,-50.72344970703125,116.170654296875,-309.029541015625,3,158.1529541015625,196.306396484375,10.5302734375,0.0,0.0,0.0,0.0,-0.0011111111111111111,0.0011111111111111111,-0.0011111111111111111,-0.14,1.83,9.6,11.72498816
1671151403.9993954,0,-112.530029296875,195.652099609375,90.3583984375,1,-102.1241455078125,115.14306640625,-293.74072265625,2,-50.72918701171875,116.161865234375,-309.044677734375,3,158.0582275390625,196.296630859375,10.4697265625,0.0,0.0,0.0,0.0,-0.0011111111111111111,0.0011111111111111111,-0.0011111111111111111,-0.14,1.83,9.6,11.72498816
1671151404.0093188,0,-112.51544189453125,195.666015625,90.359130859375,1,-102.11395263671875,115.1396484375,-293.73681640625,2,-50.76556396484375,116.146484375,-309.047607421875,3,158.0684814453125,196.304931640625,10.48779296875,0.0,0.0,0.0,0.0,-0.0011111111111111111,0.0011111111111111111,-0.0011111111111111111,-0.14,1.83,9.6,11.72498816
1671151404.0193198,0,-112.5498046875,195.605712890625,90.337890625,1,-102.13232421875,115.15771484375,-293.770751953125,2,-50.726318359375,116.205810546875,-309.068115234375,3,158.128173828125,196.29541015625,10.5263671875,0.0,0.0,0.0,0.0,-0.2833333333333333,0.0022222222222222222,-0.0011111111111111111,-0.16,1.82,9.61,11.754629984000001
1671151404.0293188,0,-112.55657958984375,195.60009765625,90.38818359375,1,-102.13690185546875,115.090087890625,-293.71142578125,2,-50.74432373046875,116.095703125,-308.998779296875,3,158.0872802734375,196.265380859375,10.568115234375,0.0,0.0,0.0,0.0,-0.2833333333333333,0.0022222222222222222,-0.0011111111111111111,-0.16,1.82,9.61,11.754629984000001
1671151404.0393205,0,-112.50537109375,195.591552734375,90.35205078125,1,-102.12811279296875,115.130859375,-293.74609375,2,-50.75006103515625,116.168212890625,-309.027099609375,3,158.09228515625,196.26953125,10.49560546875,0.0,0.0,0.0,0.0,-0.2833333333333333,0.0022222222222222222,-0.0011111111111111111,-0.16,1.82,9.61,11.754629984000001
1671151404.0493991,0,-112.499755859375,195.613525390625,90.37109375,1,-102.13714599609375,115.127197265625,-293.75390625,2,-50.77032470703125,116.15380859375,-309.04052734375,3,158.08544921875,196.30615234375,10.489013671875,0.0,0.0,0.0,0.0,-0.2833333333333333,0.0022222222222222222,-0.0011111111111111111,-0.16,1.82,9.61,11.754629984000001
1671151404.059323,0,-112.50830078125,195.618408203125,90.356689453125,1,-102.12548828125,115.123291015625,-293.722900390625,2,-50.90399169921875,116.1953125,-309.052490234375,3,158.0521240234375,196.31689453125,10.481689453125,0.0,0.0,0.0,0.0,-0.2833333333333333,0.0022222222222222222,-0.0011111111111111111,-0.16,1.82,9.61,11.754629984000001
1671151404.0693214,0,-112.50390625,195.593994140625,90.337646484375,1,-102.123779296875,115.15869140625,-293.755859375,2,-50.7342529296875,116.119384765625,-309.057373046875,3,158.1409912109375,196.27490234375,10.52099609375,0.0,0.0,0.0,0.0,-0.2833333333333333,0.0022222222222222222,-0.0011111111111111111,-0.16,1.82,9.61,11.754629984000001
1671151404.0793226,0,-112.511962890625,195.6162109375,90.373779296875,1,-102.12432861328125,115.1416015625,-293.74462890625,2,-50.75079345703125,116.1220703125,-309.0224609375,3,158.1937255859375,196.26025390625,10.492919921875,0.0,0.0,0.0,0.0,0.0033333333333333335,0.0011111111111111111,0.0011111111111111111,-0.17,1.83,9.62,11.731575232
1671151404.089324,0,-112.461181640625,195.60986328125,90.357177734375,1,-102.125244140625,115.13916015625,-293.740966796875,2,-50.77032470703125,116.134033203125,-309.023193359375,3,158.1314697265625,196.365478515625,10.48193359375,0.0,0.0,0.0,0.0,0.0033333333333333335,0.0011111111111111111,0.0011111111111111111,-0.17,1.83,9.62,11.731575232
1671151404.0993896,0,-112.4803466796875,195.6416015625,90.34228515625,1,-102.12249755859375,115.140869140625,-293.75537109375,2,-50.7666015625,116.13623046875,-309.072998046875,3,158.0584716796875,196.328125,10.474365234375,0.0,0.0,0.0,0.0,0.0033333333333333335,0.0011111111111111111,0.0011111111111111111,-0.17,1.83,9.62,11.731575232
1671151404.1094134,0,-112.400634765625,195.623046875,90.329345703125,1,-102.1246337890625,115.130859375,-293.7548828125,2,-50.834228515625,116.11669921875,-309.03369140625,3,158.072265625,196.33056640625,10.483642578125,0.0,0.0,0.0,0.0,0.0033333333333333335,0.0011111111111111111,0.0011111111111111111,-0.17,1.83,9.62,11.731575232
1671151404.1193838,0,-112.53338623046875,195.597900390625,90.310302734375,1,-102.12353515625,115.138671875,-293.747314453125,2,-50.7230224609375,116.0771484375,-309.055908203125,3,158.1280517578125,196.2998046875,10.528076171875,0.0,0.0,0.0,0.0,0.0,-0.0011111111111111111,-0.0022222222222222222,-0.16,1.83,9.62,11.744749376
1671151404.1293917,0,-112.5267333984375,195.6142578125,90.3525390625,1,-102.1199951171875,115.10986328125,-293.725341796875,2,-50.79931640625,116.144775390625,-309.04296875,3,158.1285400390625,196.3134765625,10.5146484375,0.0,0.0,0.0,0.0,0.0,-0.0011111111111111111,-0.0022222222222222222,-0.16,1.83,9.62,11.744749376
1671151404.139386,0,-112.5179443359375,195.583251953125,90.353515625,1,-102.1259765625,115.138671875,-293.743408203125,2,-50.6993408203125,116.019287109375,-309.05126953125,3,158.1314697265625,196.307373046875,10.504150390625,0.0,0.0,0.0,0.0,0.0,-0.0011111111111111111,-0.0022222222222222222,-0.16,1.83,9.62,11.744749376
1671151404.149444,0,-112.5521240234375,195.591064453125,90.32958984375,1,-102.1021728515625,115.12890625,-293.740478515625,2,-50.7210693359375,116.06201171875,-309.0361328125,3,158.1177978515625,196.305908203125,10.508544921875,0.0,0.0,0.0,0.0,0.0,-0.0011111111111111111,-0.0022222222222222222,-0.16,1.83,9.62,11.744749376
1671151404.1593227,0,-112.580078125,195.603759765625,90.325927734375,1,-102.1131591796875,115.146240234375,-293.72900390625,2,-50.9189453125,116.10498046875,-309.05224609375,3,158.0748291015625,196.303955078125,10.463623046875,0.0,0.0,0.0,0.0,0.0,-0.0011111111111111111,-0.0022222222222222222,-0.16,1.83,9.62,11.744749376
1671151404.1693215,0,-112.578857421875,195.538818359375,90.3505859375,1,-102.1185302734375,115.122314453125,-293.716796875,2,-50.74981689453125,116.057861328125,-308.998291015625,3,158.140380859375,196.350830078125,10.49951171875,0.0,0.0,0.0,0.0,0.0,0.0011111111111111111,-0.0011111111111111111,-0.16,1.83,9.62,11.731575232
1671151404.1793203,0,-112.495849609375,195.5927734375,90.352783203125,1,-102.123291015625,115.12109375,-293.75390625,2,-50.70269775390625,116.03662109375,-309.08349609375,3,158.129638671875,196.302734375,10.526123046875,0.0,0.0,0.0,0.0,0.0,0.0011111111111111111,-0.0011111111111111111,-0.16,1.83,9.62,11.731575232
1671151404.1893387,0,-112.51873779296875,195.56396484375,90.37060546875,1,-102.1136474609375,115.1181640625,-293.7451171875,2,-50.77294921875,116.052734375,-309.025390625,3,158.07568359375,196.319091796875,10.50830078125,0.0,0.0,0.0,0.0,0.0,0.0011111111111111111,-0.0011111111111111111,-0.16,1.83,9.62,11.731575232
1671151404.1994126,0,-112.4825439453125,195.60205078125,90.34814453125,1,-102.11737060546875,115.1279296875,-293.734619140625,2,-50.7591552734375,116.0908203125,-309.05859375,3,158.0882568359375,196.27490234375,10.503662109375,0.0,0.0,0.0,0.0,0.0,0.0011111111111111111,-0.0011111111111111111,-0.16,1.83,9.62,11.731575232
1671151404.2093353,0,-112.4658203125,195.62255859375,90.37646484375,1,-102.125244140625,115.1103515625,-293.729736328125,2,-50.8062744140625,116.078125,-309.06689453125,3,158.076416015625,196.317626953125,10.467041015625,0.0,0.0,0.0,0.0,0.0,0.0011111111111111111,-0.0011111111111111111,-0.16,1.83,9.62,11.731575232
1671151404.2193255,0,-112.507080078125,195.521484375,90.37255859375,1,-102.11602783203125,115.14794921875,-293.732421875,2,-50.779052734375,116.112060546875,-309.057373046875,3,158.1217041015625,196.33984375,10.45263671875,0.0,0.0,0.0,0.0,0.0011111111111111111,0.0011111111111111111,-0.0,-0.15,1.82,9.62,11.754629984000001
1671151404.229319,0,-112.42852783203125,195.55908203125,90.36767578125,1,-102.1041259765625,115.1552734375,-293.753173828125,2,-50.7406005859375,116.111572265625,-309.0380859375,3,158.124267578125,196.2861328125,10.47998046875,0.0,0.0,0.0,0.0,0.0011111111111111111,0.0011111111111111111,-0.0,-0.15,1.82,9.62,11.754629984000001
1671151404.239319,0,-112.4842529296875,195.591796875,90.347412109375,1,-102.1231689453125,115.144775390625,-293.73388671875,2,-50.7291259765625,116.123046875,-309.069091796875,3,158.084228515625,196.314208984375,10.5068359375,0.0,0.0,0.0,0.0,0.0011111111111111111,0.0011111111111111111,-0.0,-0.15,1.82,9.62,11.754629984000001
1671151404.2494297,0,-112.43243408203125,195.53857421875,90.36962890625,1,-102.12994384765625,115.12890625,-293.7392578125,2,-50.7615966796875,116.12060546875,-309.048828125,3,158.043212890625,196.293212890625,10.46826171875,0.0,0.0,0.0,0.0,0.0011111111111111111,0.0011111111111111111,-0.0,-0.15,1.82,9.62,11.754629984000001
1671151404.259325,0,-112.447998046875,195.594970703125,90.3720703125,1,-102.1170654296875,115.1201171875,-293.7265625,2,-50.76690673828125,116.123779296875,-309.03857421875,3,158.083984375,196.3193359375,10.463134765625,0.0,0.0,0.0,0.0,0.0011111111111111111,0.0011111111111111111,-0.0,-0.15,1.82,9.62,11.754629984000001
1671151404.2693663,0,-112.5299072265625,195.512939453125,90.387451171875,1,-102.1309814453125,115.142822265625,-293.751708984375,2,-50.59930419921875,116.0703125,-309.048828125,3,158.0489501953125,196.340087890625,10.482177734375,0.0,0.0,0.0,0.0,0.0011111111111111111,0.0011111111111111111,-0.0,-0.15,1.82,9.62,11.754629984000001
1671151404.279407,0,-112.4500732421875,195.646728515625,90.3583984375,1,-102.116455078125,115.124755859375,-293.73828125,2,-50.62493896484375,116.031982421875,-309.035888671875,3,158.1614990234375,196.2861328125,10.485107421875,0.0,0.0,0.0,0.0,-0.0022222222222222222,0.0033333333333333335,-0.0,-0.14,1.83,9.62,11.734868768
1671151404.2893734,0,-112.4764404296875,195.580078125,90.365966796875,1,-102.1181640625,115.14013671875,-293.730224609375,2,-50.64630126953125,116.045654296875,-309.04345703125,3,158.107421875,196.366943359375,10.494873046875,0.0,0.0,0.0,0.0,-0.0022222222222222222,0.0033333333333333335,-0.0,-0.14,1.83,9.62,11.734868768
1671151404.2994182,0,-112.504150390625,195.610107421875,90.385009765625,1,-102.111328125,115.130126953125,-293.714599609375,2,-50.73016357421875,116.132080078125,-309.042236328125,3,158.052490234375,196.3037109375,10.459716796875,0.0,0.0,0.0,0.0,-0.0022222222222222222,0.0033333333333333335,-0.0,-0.14,1.83,9.62,11.734868768
1671151404.3093739,0,-112.447021484375,195.62158203125,90.348876953125,1,-102.12225341796875,115.1474609375,-293.747802734375,2,-50.75384521484375,116.12060546875,-309.05615234375,3,158.0687255859375,196.288818359375,10.469482421875,0.0,0.0,0.0,0.0,-0.0022222222222222222,0.0033333333333333335,-0.0,-0.14,1.83,9.62,11.734868768
1671151404.3193772,0,-112.44671630859375,195.556640625,90.366943359375,1,-102.1302490234375,115.134765625,-293.741455078125,2,-50.62030029296875,116.053955078125,-309.034912109375,3,158.0682373046875,196.322021484375,10.49365234375,0.0,0.0,0.0,0.0,0.0011111111111111111,0.0011111111111111111,-0.0,-0.15,1.84,9.63,11.738162304000001
1671151404.329385,0,-112.41748046875,195.624755859375,90.3564453125,1,-102.099609375,115.146240234375,-293.722900390625,2,-50.56866455078125,116.013916015625,-309.068359375,3,158.099365234375,196.32421875,10.49658203125,0.0,0.0,0.0,0.0,0.0011111111111111111,0.0011111111111111111,-0.0,-0.15,1.84,9.63,11.738162304000001
1671151404.339374,0,-112.3895263671875,195.631103515625,90.362548828125,1,-102.118896484375,115.11767578125,-293.731689453125,2,-50.7647705078125,116.129638671875,-309.03955078125,3,158.091064453125,196.3193359375,10.479736328125,0.0,0.0,0.0,0.0,0.0011111111111111111,0.0011111111111111111,-0.0,-0.15,1.84,9.63,11.738162304000001
1671151404.3493998,0,-112.43023681640625,195.6220703125,90.37353515625,1,-102.15020751953125,115.11767578125,-293.746337890625,2,-50.7496337890625,116.122314453125,-309.0361328125,3,158.0755615234375,196.302734375,10.465087890625,0.0,0.0,0.0,0.0,0.0011111111111111111,0.0011111111111111111,-0.0,-0.15,1.84,9.63,11.738162304000001
1671151404.3593855,0,-112.4622802734375,195.59326171875,90.360107421875,1,-102.10797119140625,115.123046875,-293.7548828125,2,-50.77374267578125,116.100341796875,-309.056396484375,3,158.0888671875,196.30712890625,10.451171875,0.0,0.0,0.0,0.0,0.0011111111111111111,0.0011111111111111111,-0.0,-0.15,1.84,9.63,11.738162304000001
1671151404.3693814,0,-112.47003173828125,195.538818359375,90.3349609375,1,-102.13427734375,115.12109375,-293.73828125,2,-50.65777587890625,116.056884765625,-309.053955078125,3,158.07080078125,196.30810546875,10.470947265625,0.0,0.0,0.0,0.0,0.0,-0.0,-0.0,-0.15,1.85,9.61,11.744749376
1671151404.3793893,0,-112.45050048828125,195.66748046875,90.31591796875,1,-102.13616943359375,115.14697265625,-293.749755859375,2,-50.78729248046875,116.11328125,-309.031005859375,3,158.1318359375,196.3330078125,10.508056640625,0.0,0.0,0.0,0.0,0.0,-0.0,-0.0,-0.15,1.85,9.61,11.744749376
1671151404.3893816,0,-112.3763427734375,195.60546875,90.352294921875,1,-102.1363525390625,115.11328125,-293.738525390625,2,-50.77093505859375,116.111572265625,-309.01708984375,3,158.0946044921875,196.334228515625,10.471435546875,0.0,0.0,0.0,0.0,0.0,-0.0,-0.0,-0.15,1.85,9.61,11.744749376
1671151404.3994157,0,-112.42694091796875,195.5712890625,90.366455078125,1,-102.1064453125,115.134033203125,-293.743408203125,2,-50.78271484375,116.13623046875,-309.044921875,3,158.05712890625,196.27734375,10.486083984375,0.0,0.0,0.0,0.0,0.0,-0.0,-0.0,-0.15,1.85,9.61,11.744749376
1671151404.4093955,0,-112.43145751953125,195.5869140625,90.37060546875,1,-102.1375732421875,115.130859375,-293.729736328125,2,-50.93707275390625,116.16943359375,-309.0595703125,3,158.0887451171875,196.289306640625,10.470947265625,0.0,0.0,0.0,0.0,0.0,-0.0,-0.0,-0.15,1.85,9.61,11.744749376
1671151404.419435,0,-112.4317626953125,195.59814453125,90.382080078125,1,-102.14599609375,115.12939453125,-293.771728515625,2,-50.7987060546875,116.072265625,-309.05224609375,3,158.0567626953125,196.28857421875,10.44482421875,0.0,0.0,0.0,0.0,-0.0011111111111111111,0.0011111111111111111,-0.0022222222222222222,-0.16,1.83,9.64,11.738162304000001
1671151404.429443,0,-112.3433837890625,195.6435546875,90.37548828125,1,-102.1231689453125,115.127197265625,-293.738037109375,2,-50.7825927734375,116.098876953125,-309.03662109375,3,158.126953125,196.327880859375,10.4638671875,0.0,0.0,0.0,0.0,-0.0011111111111111111,0.0011111111111111111,-0.0022222222222222222,-0.16,1.83,9.64,11.738162304000001
1671151404.439344,0,-112.43109130859375,195.5615234375,90.347900390625,1,-102.13671875,115.121337890625,-293.759521484375,2,-50.77490234375,116.119140625,-309.0546875,3,158.1058349609375,196.28955078125,10.5078125,0.0,0.0,0.0,0.0,-0.0011111111111111111,0.0011111111111111111,-0.0022222222222222222,-0.16,1.83,9.64,11.738162304000001
1671151404.449389,0,-112.39910888671875,195.5546875,90.366943359375,1,-102.1168212890625,115.138916015625,-293.719482421875,2,-50.7586669921875,116.131591796875,-309.05078125,3,158.1053466796875,196.3046875,10.478515625,0.0,0.0,0.0,0.0,-0.0011111111111111111,0.0011111111111111111,-0.0022222222222222222,-0.16,1.83,9.64,11.738162304000001
1671151404.4593308,0,-112.50994873046875,195.5615234375,90.330078125,1,-102.12042236328125,115.1513671875,-293.770751953125,2,-50.783203125,116.109375,-309.0322265625,3,158.0975341796875,196.302001953125,10.489990234375,0.0,0.0,0.0,0.0,-0.0011111111111111111,0.0011111111111111111,-0.0022222222222222222,-0.16,1.83,9.64,11.738162304000001
1671151404.469322,0,-112.44635009765625,195.525390625,90.353271484375,1,-102.118896484375,115.134033203125,-293.748779296875,2,-50.6605224609375,116.076416015625,-309.0390625,3,158.0748291015625,196.292724609375,10.497314453125,0.0,0.0,0.0,0.0,0.0,-0.0011111111111111111,-0.0,-0.16,1.83,9.64,11.72498816
1671151404.4793196,0,-112.46759033203125,195.5927734375,90.355712890625,1,-102.10089111328125,115.12548828125,-293.740966796875,2,-50.6802978515625,116.11767578125,-309.05859375,3,158.1180419921875,196.2763671875,10.517822265625,0.0,0.0,0.0,0.0,0.0,-0.0011111111111111111,-0.0,-0.16,1.83,9.64,11.72498816
1671151404.4893303,0,-112.50885009765625,195.570068359375,90.3876953125,1,-102.12811279296875,115.105712890625,-293.739501953125,2,-50.659912109375,116.072509765625,-309.052734375,3,158.0740966796875,196.3037109375,10.50537109375,0.0,0.0,0.0,0.0,0.0,-0.0011111111111111111,-0.0,-0.16,1.83,9.64,11.72498816
1671151404.4993818,0,-112.50384521484375,195.517822265625,90.38916015625,1,-102.139404296875,115.11962890625,-293.75390625,2,-50.63983154296875,116.035888671875,-309.049560546875,3,158.0660400390625,196.267333984375,10.5087890625,0.0,0.0,0.0,0.0,0.0,-0.0011111111111111111,-0.0,-0.16,1.83,9.64,11.72498816
1671151404.509362,0,-112.462890625,195.511474609375,90.38134765625,1,-102.137451171875,115.12890625,-293.743408203125,2,-50.768310546875,116.128662109375,-309.036865234375,3,158.0517578125,196.286865234375,10.46484375,0.0,0.0,0.0,0.0,0.0,-0.0011111111111111111,-0.0,-0.16,1.83,9.64,11.72498816
1671151404.5193324,0,-112.45294189453125,195.549072265625,90.37939453125,1,-102.12384033203125,115.14599609375,-293.74462890625,2,-50.631591796875,116.095458984375,-309.018798828125,3,158.1182861328125,196.322509765625,10.49462890625,0.0,0.0,0.0,0.0,0.0,-0.0022222222222222222,-0.0,-0.16,1.84,9.6,11.721694624000001
1671151404.5293248,0,-112.4517822265625,195.53564453125,90.38037109375,1,-102.127685546875,115.132080078125,-293.7529296875,2,-50.71337890625,116.15771484375,-309.0244140625,3,158.1002197265625,196.33251953125,10.489501953125,0.0,0.0,0.0,0.0,0.0,-0.0022222222222222222,-0.0,-0.16,1.84,9.6,11.721694624000001
1671151404.5393212,0,-112.51080322265625,195.5556640625,90.376708984375,1,-102.09039306640625,115.1201171875,-293.71337890625,2,-50.72979736328125,116.18505859375,-309.041748046875,3,158.079345703125,196.363037109375,10.483154296875,0.0,0.0,0.0,0.0,0.0,-0.0022222222222222222,-0.0,-0.16,1.84,9.6,11.721694624000001
1671151404.5493767,0,-112.43585205078125,195.5673828125,90.371826171875,1,-102.13983154296875,115.123046875,-293.754150390625,2,-50.73162841796875,116.1748046875,-309.06005859375,3,158.0560302734375,196.28271484375,10.4482421875,0.0,0.0,0.0,0.0,0.0,-0.0022222222222222222,-0.0,-0.16,1.84,9.6,11.721694624000001
1671151404.5593238,0,-112.48870849609375,195.5576171875,90.378173828125,1,-102.13720703125,115.12744140625,-293.747802734375,2,-50.82281494140625,116.1650390625,-309.048095703125,3,158.0684814453125,196.29931640625,10.451416015625,0.0,0.0,0.0,0.0,0.0,-0.0022222222222222222,-0.0,-0.16,1.84,9.6,11.721694624000001
1671151404.5693226,0,-112.49591064453125,195.5,90.371337890625,1,-102.133056640625,115.111083984375,-293.74658203125,2,-50.69293212890625,116.1318359375,-309.030029296875,3,158.1065673828125,196.3193359375,10.496337890625,0.0,0.0,0.0,0.0,-0.28444444444444444,0.0022222222222222222,-0.0022222222222222222,-0.16,1.82,9.62,11.734868768
1671151404.5793207,0,-112.47283935546875,195.526611328125,90.40185546875,1,-102.145263671875,115.13427734375,-293.7744140625,2,-50.6898193359375,116.096435546875,-309.044189453125,3,158.1219482421875,196.32470703125,10.510498046875,0.0,0.0,0.0,0.0,-0.28444444444444444,0.0022222222222222222,-0.0022222222222222222,-0.16,1.82,9.62,11.734868768
1671151404.5893242,0,-112.40557861328125,195.56982421875,90.363525390625,1,-102.1165771484375,115.160888671875,-293.751708984375,2,-50.7515869140625,116.093994140625,-309.02197265625,3,158.141845703125,196.322021484375,10.498291015625,0.0,0.0,0.0,0.0,-0.28444444444444444,0.0022222222222222222,-0.0022222222222222222,-0.16,1.82,9.62,11.734868768
1671151404.5993884,0,-112.4139404296875,195.590576171875,90.377197265625,1,-102.1317138671875,115.142333984375,-293.749755859375,2,-50.71966552734375,116.130615234375,-309.045166015625,3,158.0675048828125,196.32373046875,10.470458984375,0.0,0.0,0.0,0.0,-0.28444444444444444,0.0022222222222222222,-0.0022222222222222222,-0.16,1.82,9.62,11.734868768
1671151404.609317,0,-112.442626953125,195.57666015625,90.373779296875,1,-102.118408203125,115.132080078125,-293.742919921875,2,-50.94000244140625,116.225830078125,-309.093994140625,3,158.0472412109375,196.314208984375,10.47802734375,0.0,0.0,0.0,0.0,-0.28444444444444444,0.0022222222222222222,-0.0022222222222222222,-0.16,1.82,9.62,11.734868768
1671151404.6193216,0,-112.522705078125,195.489501953125,90.33447265625,1,-102.169677734375,115.136962890625,-293.7763671875,2,-50.7557373046875,116.082275390625,-309.015380859375,3,158.0670166015625,196.34033203125,10.452880859375,0.0,0.0,0.0,0.0,-0.0011111111111111111,-0.0022222222222222222,0.0011111111111111111,-0.16,1.82,9.64,11.748042912
1671151404.6293204,0,-112.3837890625,195.637939453125,90.3603515625,1,-102.1468505859375,115.113037109375,-293.7197265625,2,-50.67425537109375,116.064453125,-309.042724609375,3,158.1318359375,196.3466796875,10.47509765625,0.0,0.0,0.0,0.0,-0.0011111111111111111,-0.0022222222222222222,0.0011111111111111111,-0.16,1.82,9.64,11.748042912
1671151404.6393178,0,-112.4249267578125,195.62451171875,90.3818359375,1,-102.128173828125,115.142333984375,-293.759765625,2,-50.74102783203125,116.133544921875,-309.068115234375,3,158.13037109375,196.318359375,10.49169921875,0.0,0.0,0.0,0.0,-0.0011111111111111111,-0.0022222222222222222,0.0011111111111111111,-0.16,1.82,9.64,11.748042912
1671151404.6493838,0,-112.440673828125,195.5791015625,90.37451171875,1,-102.1197509765625,115.134765625,-293.738037109375,2,-50.74755859375,116.069091796875,-309.029296875,3,158.0391845703125,196.290771484375,10.462158203125,0.0,0.0,0.0,0.0,-0.0011111111111111111,-0.0022222222222222222,0.0011111111111111111,-0.16,1.82,9.64,11.748042912
1671151404.6593235,0,-112.3980712890625,195.599365234375,90.363037109375,1,-102.119140625,115.128173828125,-293.72314453125,2,-50.75537109375,116.0791015625,-309.064697265625,3,158.09375,196.292724609375,10.490966796875,0.0,0.0,0.0,0.0,-0.0011111111111111111,-0.0022222222222222222,0.0011111111111111111,-0.16,1.82,9.64,11.748042912
1671151404.6693194,0,-112.41143798828125,195.55859375,90.35791015625,1,-102.10919189453125,115.14501953125,-293.751220703125,2,-50.693359375,116.052001953125,-309.03515625,3,158.0771484375,196.350830078125,10.45458984375,0.0,0.0,0.0,0.0,-0.0011111111111111111,-0.0022222222222222222,0.0011111111111111111,-0.16,1.82,9.64,11.748042912
1671151404.6793203,0,-112.34893798828125,195.623291015625,90.366455078125,1,-102.1387939453125,115.13037109375,-293.738525390625,2,-50.65338134765625,116.02783203125,-309.05517578125,3,158.093017578125,196.34619140625,10.486572265625,0.0,0.0,0.0,0.0,0.0,0.0011111111111111111,-0.0,-0.17,1.83,9.59,11.72498816
1671151404.6893194,0,-112.38629150390625,195.5546875,90.373779296875,1,-102.1414794921875,115.1298828125,-293.75048828125,2,-50.62353515625,115.98974609375,-309.080078125,3,158.1160888671875,196.3251953125,10.51806640625,0.0,0.0,0.0,0.0,0.0,0.0011111111111111111,-0.0,-0.17,1.83,9.59,11.72498816
1671151404.6993861,0,-112.39105224609375,195.55078125,90.361572265625,1,-102.12762451171875,115.169677734375,-293.74560546875,2,-50.5389404296875,115.947265625,-309.028564453125,3,158.05078125,196.33935546875,10.467041015625,0.0,0.0,0.0,0.0,0.0,0.0011111111111111111,-0.0,-0.17,1.83,9.59,11.72498816
1671151404.7093437,0,-112.410888671875,195.58642578125,90.3662109375,1,-102.111572265625,115.1435546875,-293.7265625,2,-50.76702880859375,116.057861328125,-309.052978515625,3,158.0516357421875,196.320068359375,10.486572265625,0.0,0.0,0.0,0.0,0.0,0.0011111111111111111,-0.0,-0.17,1.83,9.59,11.72498816
1671151404.7193277,0,-112.49774169921875,195.495361328125,90.389404296875,1,-102.1317138671875,115.139404296875,-293.739013671875,2,-50.7552490234375,116.07470703125,-309.0810546875,3,158.05517578125,196.323974609375,10.494140625,0.0,0.0,0.0,0.0,-0.0011111111111111111,0.0033333333333333335,-0.0,-0.15,1.85,9.64,11.731575232
1671151404.7293212,0,-112.39837646484375,195.675537109375,90.353271484375,1,-102.133544921875,115.14599609375,-293.744140625,2,-50.71063232421875,116.041259765625,-309.033447265625,3,158.0731201171875,196.327392578125,10.527587890625,0.0,0.0,0.0,0.0,-0.0011111111111111111,0.0033333333333333335,-0.0,-0.15,1.85,9.64,11.731575232
1671151404.7393227,0,-112.453369140625,195.589111328125,90.381591796875,1,-102.1258544921875,115.13525390625,-293.74169921875,2,-50.67205810546875,116.034912109375,-309.05078125,3,158.141357421875,196.326171875,10.51904296875,0.0,0.0,0.0,0.0,-0.0011111111111111111,0.0033333333333333335,-0.0,-0.15,1.85,9.64,11.731575232
1671151404.7493799,0,-112.44940185546875,195.5859375,90.35546875,1,-102.1163330078125,115.14892578125,-293.7421875,2,-50.75372314453125,116.11572265625,-309.05224609375,3,158.0855712890625,196.272216796875,10.4775390625,0.0,0.0,0.0,0.0,-0.0011111111111111111,0.0033333333333333335,-0.0,-0.15,1.85,9.64,11.731575232
1671151404.759323,0,-112.45819091796875,195.57275390625,90.384521484375,1,-102.1202392578125,115.13037109375,-293.741455078125,2,-50.79766845703125,116.0390625,-309.068603515625,3,158.0687255859375,196.300537109375,10.467041015625,0.0,0.0,0.0,0.0,-0.0011111111111111111,0.0033333333333333335,-0.0,-0.15,1.85,9.64,11.731575232
1671151404.7693207,0,-112.47906494140625,195.536376953125,90.37353515625,1,-102.11895751953125,115.121826171875,-293.74560546875,2,-50.63885498046875,116.01318359375,-309.01708984375,3,158.1094970703125,196.333740234375,10.4892578125,0.0,0.0,0.0,0.0,-0.28444444444444444,-0.0011111111111111111,-0.0011111111111111111,-0.15,1.84,9.61,11.72498816
1671151404.7793217,0,-112.45587158203125,195.55517578125,90.368896484375,1,-102.150634765625,115.1142578125,-293.7509765625,2,-50.71636962890625,116.04443359375,-309.048095703125,3,158.1236572265625,196.289794921875,10.48583984375,0.0,0.0,0.0,0.0,-0.28444444444444444,-0.0011111111111111111,-0.0011111111111111111,-0.15,1.84,9.61,11.72498816
1671151404.789322,0,-112.469970703125,195.613525390625,90.370849609375,1,-102.1307373046875,115.1142578125,-293.732666015625,2,-50.61993408203125,116.005615234375,-309.059326171875,3,158.108154296875,196.32470703125,10.48681640625,0.0,0.0,0.0,0.0,-0.28444444444444444,-0.0011111111111111111,-0.0011111111111111111,-0.15,1.84,9.61,11.72498816
1671151404.7994337,0,-112.50555419921875,195.544677734375,90.377197265625,1,-102.1248779296875,115.14501953125,-293.742919921875,2,-50.773193359375,116.09130859375,-309.0625,3,158.0909423828125,196.295654296875,10.492919921875,0.0,0.0,0.0,0.0,-0.28444444444444444,-0.0011111111111111111,-0.0011111111111111111,-0.15,1.84,9.61,11.72498816
1671151404.809359,0,-112.551025390625,195.58056640625,90.38916015625,1,-102.13397216796875,115.148193359375,-293.739990234375,2,-50.7479248046875,116.0576171875,-309.055419921875,3,158.0521240234375,196.318603515625,10.466552734375,0.0,0.0,0.0,0.0,-0.28444444444444444,-0.0011111111111111111,-0.0011111111111111111,-0.15,1.84,9.61,11.72498816
1671151404.8193245,0,-112.54083251953125,195.50439453125,90.36376953125,1,-102.1318359375,115.13671875,-293.74169921875,2,-50.6802978515625,116.062744140625,-309.02392578125,3,158.0419921875,196.3310546875,10.4853515625,0.0,0.0,0.0,0.0,-0.0033333333333333335,-0.0011111111111111111,-0.0011111111111111111,-0.17,1.84,9.62,11.744749376
1671151404.8293197,0,-112.44525146484375,195.56103515625,90.3662109375,1,-102.12994384765625,115.08740234375,-293.7158203125,2,-50.7432861328125,116.123291015625,-309.020263671875,3,158.143310546875,196.30615234375,10.511474609375,0.0,0.0,0.0,0.0,-0.0033333333333333335,-0.0011111111111111111,-0.0011111111111111111,-0.17,1.84,9.62,11.744749376
1671151404.8393168,0,-112.481689453125,195.60595703125,90.36767578125,1,-102.10498046875,115.116455078125,-293.715576171875,2,-50.74285888671875,116.113525390625,-309.048095703125,3,158.121337890625,196.306396484375,10.49951171875,0.0,0.0,0.0,0.0,-0.0033333333333333335,-0.0011111111111111111,-0.0011111111111111111,-0.17,1.84,9.62,11.744749376
1671151404.8494139,0,-112.50433349609375,195.56396484375,90.378662109375,1,-102.1181640625,115.146484375,-293.734130859375,2,-50.83563232421875,116.18603515625,-309.03759765625,3,158.064453125,196.284423828125,10.466064453125,0.0,0.0,0.0,0.0,-0.0033333333333333335,-0.0011111111111111111,-0.0011111111111111111,-0.17,1.84,9.62,11.744749376
1671151404.8593242,0,-112.44866943359375,195.59228515625,90.3662109375,1,-102.10980224609375,115.10986328125,-293.732177734375,2,-50.87005615234375,116.155517578125,-309.02490234375,3,158.0760498046875,196.29833984375,10.50341796875,0.0,0.0,0.0,0.0,-0.0033333333333333335,-0.0011111111111111111,-0.0011111111111111111,-0.17,1.84,9.62,11.744749376
1671151404.8693688,0,-112.5091552734375,195.52392578125,90.38720703125,1,-102.1138916015625,115.172607421875,-293.783935546875,2,-50.74053955078125,116.157470703125,-309.0625,3,158.1722412109375,196.293701171875,10.486328125,0.0,0.0,0.0,0.0,0.0022222222222222222,0.0022222222222222222,-0.0011111111111111111,-0.16,1.82,9.62,11.738162304000001
1671151404.8793578,0,-112.4573974609375,195.6015625,90.365478515625,1,-102.1304931640625,115.114013671875,-293.736328125,2,-50.75244140625,116.103271484375,-309.001220703125,3,158.09521484375,196.311279296875,10.490966796875,0.0,0.0,0.0,0.0,0.0022222222222222222,0.0022222222222222222,-0.0011111111111111111,-0.16,1.82,9.62,11.738162304000001
1671151404.8893197,0,-112.454833984375,195.593017578125,90.35693359375,1,-102.15020751953125,115.1015625,-293.74462890625,2,-50.78448486328125,116.181884765625,-309.036376953125,3,158.1041259765625,196.3212890625,10.47119140625,0.0,0.0,0.0,0.0,0.0022222222222222222,0.0022222222222222222,-0.0011111111111111111,-0.16,1.82,9.62,11.738162304000001
1671151404.8993335,0,-112.5330810546875,195.613525390625,90.361328125,1,-102.1265869140625,115.142578125,-293.740966796875,2,-50.716796875,116.146484375,-309.029541015625,3,158.0546875,196.30419921875,10.455810546875,0.0,0.0,0.0,0.0,0.0022222222222222222,0.0022222222222222222,-0.0011111111111111111,-0.16,1.82,9.62,11.738162304000001
1671151404.9093554,0,-112.49444580078125,195.63037109375,90.359375,1,-102.1297607421875,115.141357421875,-293.74951171875,2,-50.818115234375,116.141845703125,-309.02294921875,3,158.0594482421875,196.322509765625,10.48681640625,0.0,0.0,0.0,0.0,0.0022222222222222222,0.0022222222222222222,-0.0011111111111111111,-0.16,1.82,9.62,11.738162304000001
1671151404.919318,0,-112.47174072265625,195.569580078125,90.340576171875,1,-102.11865234375,115.126953125,-293.7412109375,2,-50.6732177734375,116.105712890625,-309.052490234375,3,158.1285400390625,196.3291015625,10.482666015625,0.0,0.0,0.0,0.0,0.0022222222222222222,0.0022222222222222222,-0.0011111111111111111,-0.16,1.82,9.62,11.738162304000001
1671151404.9293237,0,-112.530029296875,195.634521484375,90.37060546875,1,-102.13323974609375,115.101806640625,-293.735595703125,2,-50.760009765625,116.13818359375,-309.05078125,3,158.0377197265625,196.337646484375,10.49853515625,0.0,0.0,0.0,0.0,0.0022222222222222222,-0.0,-0.0011111111111111111,-0.14,1.82,9.63,11.734868768
1671151404.9393225,0,-112.53021240234375,195.5205078125,90.34326171875,1,-102.12286376953125,115.118408203125,-293.764404296875,2,-50.7913818359375,116.0888671875,-309.042236328125,3,158.099609375,196.333740234375,10.48486328125,0.0,0.0,0.0,0.0,0.0022222222222222222,-0.0,-0.0011111111111111111,-0.14,1.82,9.63,11.734868768
1671151404.9493806,0,-112.4649658203125,195.5986328125,90.33935546875,1,-102.12652587890625,115.14697265625,-293.7587890625,2,-50.7547607421875,116.128662109375,-309.05859375,3,158.0758056640625,196.31396484375,10.4462890625,0.0,0.0,0.0,0.0,0.0022222222222222222,-0.0,-0.0011111111111111111,-0.14,1.82,9.63,11.734868768
1671151404.9593375,0,-112.45941162109375,195.67578125,90.361328125,1,-102.1351318359375,115.152587890625,-293.77294921875,2,-50.802001953125,116.1259765625,-309.040283203125,3,158.0889892578125,196.294677734375,10.47119140625,0.0,0.0,0.0,0.0,0.0022222222222222222,-0.0,-0.0011111111111111111,-0.14,1.82,9.63,11.734868768
1671151404.9693182,0,-112.482666015625,195.59375,90.34033203125,1,-102.130859375,115.144287109375,-293.752197265625,2,-50.80743408203125,116.167236328125,-309.05517578125,3,158.1165771484375,196.276611328125,10.5263671875,0.0,0.0,0.0,0.0,0.0022222222222222222,-0.0,-0.0,-0.15,1.83,9.62,11.731575232
1671151404.9793184,0,-112.60369873046875,195.5029296875,90.408935546875,1,-102.1302490234375,115.1162109375,-293.744873046875,2,-50.794677734375,116.094970703125,-309.037109375,3,158.1614990234375,196.3046875,10.503662109375,0.0,0.0,0.0,0.0,0.0022222222222222222,-0.0,-0.0,-0.15,1.83,9.62,11.731575232
1671151404.9893155,0,-112.55548095703125,195.49853515625,90.4033203125,1,-102.12646484375,115.12939453125,-293.73046875,2,-50.7762451171875,116.086181640625,-309.033447265625,3,158.11083984375,196.351318359375,10.47314453125,0.0,0.0,0.0,0.0,0.0022222222222222222,-0.0,-0.0,-0.15,1.83,9.62,11.731575232
1671151404.9994025,0,-112.56298828125,195.48828125,90.361083984375,1,-102.1456298828125,115.147216796875,-293.782958984375,2,-50.77252197265625,116.114013671875,-309.059814453125,3,158.0296630859375,196.302978515625,10.455322265625,0.0,0.0,0.0,0.0,0.0022222222222222222,-0.0,-0.0,-0.15,1.83,9.62,11.731575232
1671151405.0093384,0,-112.587890625,195.488037109375,90.349365234375,1,-102.131103515625,115.1240234375,-293.755615234375,2,-50.801025390625,116.091064453125,-309.0439453125,3,158.0733642578125,196.293701171875,10.47607421875,0.0,0.0,0.0,0.0,0.0022222222222222222,-0.0,-0.0,-0.15,1.83,9.62,11.731575232
1671151405.0193212,0,-112.6007080078125,195.422607421875,90.377197265625,1,-102.11083984375,115.1396484375,-293.73974609375,2,-50.6727294921875,116.09228515625,-309.0654296875,3,158.09912109375,196.34423828125,10.493896484375,0.0,0.0,0.0,0.0,0.2833333333333333,-0.0011111111111111111,-0.2833333333333333,-0.16,1.83,9.6,11.715107552000001
1671151405.0293183,0,-112.57373046875,195.4833984375,90.39306640625,1,-102.127685546875,115.154296875,-293.74169921875,2,-50.65362548828125,116.086181640625,-309.048583984375,3,158.052001953125,196.35009765625,10.4912109375,0.0,0.0,0.0,0.0,0.2833333333333333,-0.0011111111111111111,-0.2833333333333333,-0.16,1.83,9.6,11.715107552000001
1671151405.0393221,0,-112.606689453125,195.4921875,90.390380859375,1,-102.11627197265625,115.141357421875,-293.724609375,2,-50.75927734375,116.115234375,-309.008544921875,3,158.08349609375,196.367431640625,10.45947265625,0.0,0.0,0.0,0.0,0.2833333333333333,-0.0011111111111111111,-0.2833333333333333,-0.16,1.83,9.6,11.715107552000001
1671151405.0493686,0,-112.57855224609375,195.50732421875,90.388671875,1,-102.13861083984375,115.13818359375,-293.743896484375,2,-50.6824951171875,116.14404296875,-309.062744140625,3,158.0675048828125,196.308349609375,10.480712890625,0.0,0.0,0.0,0.0,0.2833333333333333,-0.0011111111111111111,-0.2833333333333333,-0.16,1.83,9.6,11.715107552000001
1671151405.0593474,0,-112.7081298828125,195.578125,90.347412109375,1,-102.12359619140625,115.12158203125,-293.74853515625,2,-50.73162841796875,116.16015625,-309.061279296875,3,158.0706787109375,196.303955078125,10.4931640625,0.0,0.0,0.0,0.0,0.2833333333333333,-0.0011111111111111111,-0.2833333333333333,-0.16,1.83,9.6,11.715107552000001
1671151405.0693197,0,-112.66290283203125,195.54931640625,90.300537109375,1,-102.1334228515625,115.119140625,-293.731689453125,2,-50.68096923828125,116.14013671875,-309.05615234375,3,158.12890625,196.339111328125,10.496826171875,0.0,0.0,0.0,0.0,0.0,-0.0022222222222222222,-0.0,-0.15,1.82,9.62,11.72498816
1671151405.079318,0,-112.67022705078125,195.555908203125,90.338134765625,1,-102.1279296875,115.115234375,-293.7197265625,2,-50.67291259765625,116.089111328125,-309.02490234375,3,158.11767578125,196.32861328125,10.489501953125,0.0,0.0,0.0,0.0,0.0,-0.0022222222222222222,-0.0,-0.15,1.82,9.62,11.72498816
1671151405.089317,0,-112.673583984375,195.538330078125,90.30712890625,1,-102.14599609375,115.10009765625,-293.740234375,2,-50.7822265625,116.124267578125,-309.037109375,3,158.1220703125,196.298583984375,10.49072265625,0.0,0.0,0.0,0.0,0.0,-0.0022222222222222222,-0.0,-0.15,1.82,9.62,11.72498816
1671151405.0993633,0,-112.55914306640625,195.637939453125,90.2958984375,1,-102.10882568359375,115.107421875,-293.7294921875,2,-50.72967529296875,116.169189453125,-309.0556640625,3,158.107666015625,196.338623046875,10.47509765625,0.0,0.0,0.0,0.0,0.0,-0.0022222222222222222,-0.0,-0.15,1.82,9.62,11.72498816
1671151405.1093361,0,-112.66131591796875,195.560302734375,90.364013671875,1,-102.11956787109375,115.123779296875,-293.740478515625,2,-50.77825927734375,116.06982421875,-309.0185546875,3,158.09912109375,196.29345703125,10.5078125,0.0,0.0,0.0,0.0,0.0,-0.0022222222222222222,-0.0,-0.15,1.82,9.62,11.72498816
1671151405.1193182,0,-112.62518310546875,195.546630859375,90.394287109375,1,-102.13507080078125,115.11962890625,-293.750732421875,2,-50.62481689453125,116.036376953125,-309.048095703125,3,158.0906982421875,196.358642578125,10.457763671875,0.0,0.0,0.0,0.0,-0.0011111111111111111,-0.0011111111111111111,-0.0011111111111111111,-0.16,1.83,9.62,11.72498816
1671151405.1293228,0,-112.60858154296875,195.535888671875,90.35888671875,1,-102.12457275390625,115.13916015625,-293.757080078125,2,-50.68212890625,116.076904296875,-309.0478515625,3,158.1258544921875,196.30517578125,10.506591796875,0.0,0.0,0.0,0.0,-0.0011111111111111111,-0.0011111111111111111,-0.0011111111111111111,-0.16,1.83,9.62,11.72498816
1671151405.139317,0,-112.62554931640625,195.544189453125,90.3564453125,1,-102.1180419921875,115.1162109375,-293.729248046875,2,-50.60760498046875,116.022705078125,-309.03515625,3,158.098388671875,196.28466796875,10.509521484375,0.0,0.0,0.0,0.0,-0.0011111111111111111,-0.0011111111111111111,-0.0011111111111111111,-0.16,1.83,9.62,11.72498816
1671151405.1493657,0,-112.54766845703125,195.569091796875,90.326416015625,1,-102.1224365234375,115.1396484375,-293.71826171875,2,-50.66595458984375,116.0439453125,-309.054931640625,3,158.076416015625,196.305908203125,10.450439453125,0.0,0.0,0.0,0.0,-0.0011111111111111111,-0.0011111111111111111,-0.0011111111111111111,-0.16,1.83,9.62,11.72498816
1671151405.1593306,0,-112.497314453125,195.61865234375,90.340087890625,1,-102.1046142578125,115.11669921875,-293.717529296875,2,-50.7933349609375,116.07421875,-309.05810546875,3,158.0401611328125,196.30712890625,10.478759765625,0.0,0.0,0.0,0.0,-0.0011111111111111111,-0.0011111111111111111,-0.0011111111111111111,-0.16,1.83,9.62,11.72498816
1671151405.169321,0,-112.597412109375,195.516845703125,90.34130859375,1,-102.1356201171875,115.12451171875,-293.760498046875,2,-50.6519775390625,116.07421875,-309.034912109375,3,158.0870361328125,196.31201171875,10.471435546875,0.0,0.0,0.0,0.0,0.0,-0.0022222222222222222,-0.2822222222222222,-0.16,1.83,9.65,11.721694624000001
1671151405.1793249,0,-112.54620361328125,195.505859375,90.34521484375,1,-102.13232421875,115.1357421875,-293.750244140625,2,-50.64300537109375,116.02734375,-309.0673828125,3,158.0887451171875,196.327392578125,10.502197265625,0.0,0.0,0.0,0.0,0.0,-0.0022222222222222222,-0.2822222222222222,-0.16,1.83,9.65,11.721694624000001
1671151405.189318,0,-112.5665283203125,195.489501953125,90.35107421875,1,-102.11956787109375,115.1201171875,-293.744873046875,2,-50.7091064453125,116.08935546875,-309.066162109375,3,158.1044921875,196.310546875,10.51513671875,0.0,0.0,0.0,0.0,0.0,-0.0022222222222222222,-0.2822222222222222,-0.16,1.83,9.65,11.721694624000001
1671151405.1993814,0,-112.50054931640625,195.56787109375,90.325927734375,1,-102.106201171875,115.139404296875,-293.732666015625,2,-50.60711669921875,116.056884765625,-309.03076171875,3,158.0594482421875,196.327392578125,10.468994140625,0.0,0.0,0.0,0.0,0.0,-0.0022222222222222222,-0.2822222222222222,-0.16,1.83,9.65,11.721694624000001
1671151405.209337,0,-112.55816650390625,195.531005859375,90.363525390625,1,-102.1343994140625,115.1337890625,-293.735595703125,2,-50.7261962890625,116.1064453125,-309.03125,3,158.0426025390625,196.283447265625,10.4775390625,0.0,0.0,0.0,0.0,0.0,-0.0022222222222222222,-0.2822222222222222,-0.16,1.83,9.65,11.721694624000001
1671151405.2193573,0,-112.56744384765625,195.54150390625,90.34912109375,1,-102.1441650390625,115.109619140625,-293.746826171875,2,-50.64947509765625,116.094482421875,-309.048095703125,3,158.0858154296875,196.327880859375,10.483154296875,0.0,0.0,0.0,0.0,0.0022222222222222222,-0.0022222222222222222,-0.0,-0.17,1.84,9.61,11.728281696
1671151405.2293186,0,-112.50677490234375,195.575927734375,90.372802734375,1,-102.131591796875,115.125732421875,-293.728271484375,2,-50.66326904296875,116.14208984375,-309.045166015625,3,158.114990234375,196.333984375,10.5126953125,0.0,0.0,0.0,0.0,0.0022222222222222222,-0.0022222222222222222,-0.0,-0.17,1.84,9.61,11.728281696
1671151405.2393205,0,-112.52716064453125,195.509521484375,90.357421875,1,-102.1329345703125,115.1162109375,-293.7578125,2,-50.78399658203125,116.13232421875,-309.057373046875,3,158.1082763671875,196.3291015625,10.503662109375,0.0,0.0,0.0,0.0,0.0022222222222222222,-0.0022222222222222222,-0.0,-0.17,1.84,9.61,11.728281696
1671151405.2494001,0,-112.55743408203125,195.550537109375,90.376953125,1,-102.12060546875,115.123046875,-293.751953125,2,-50.74078369140625,116.136474609375,-309.035400390625,3,158.0726318359375,196.279296875,10.46484375,0.0,0.0,0.0,0.0,0.0022222222222222222,-0.0022222222222222222,-0.0,-0.17,1.84,9.61,11.728281696
1671151405.2593338,0,-112.57952880859375,195.533203125,90.351806640625,1,-102.124267578125,115.129150390625,-293.722900390625,2,-50.77392578125,116.112548828125,-309.052978515625,3,158.0560302734375,196.27734375,10.48974609375,0.0,0.0,0.0,0.0,0.0022222222222222222,-0.0022222222222222222,-0.0,-0.17,1.84,9.61,11.728281696
1671151405.2693875,0,-112.588623046875,195.461669921875,90.3955078125,1,-102.1263427734375,115.116455078125,-293.7314453125,2,-50.72314453125,116.10205078125,-308.99169921875,3,158.0933837890625,196.299072265625,10.529541015625,0.0,0.0,0.0,0.0,-0.0011111111111111111,-0.0,-0.0011111111111111111,-0.15,1.83,9.62,11.748042912
1671151405.2793508,0,-112.52813720703125,195.50341796875,90.373291015625,1,-102.1302490234375,115.13671875,-293.746826171875,2,-50.67791748046875,116.111083984375,-309.038818359375,3,158.142822265625,196.304931640625,10.474609375,0.0,0.0,0.0,0.0,-0.0011111111111111111,-0.0,-0.0011111111111111111,-0.15,1.83,9.62,11.748042912
1671151405.2893825,0,-112.52899169921875,195.49755859375,90.345947265625,1,-102.1353759765625,115.124755859375,-293.750244140625,2,-50.7554931640625,116.131103515625,-309.03955078125,3,158.1695556640625,196.27490234375,10.487060546875,0.0,0.0,0.0,0.0,-0.0011111111111111111,-0.0,-0.0011111111111111111,-0.15,1.83,9.62,11.748042912
1671151405.2993746,0,-112.50048828125,195.5673828125,90.34912109375,1,-102.12335205078125,115.15966796875,-293.76708984375,2,-50.5784912109375,116.096435546875,-309.029541015625,3,158.083984375,196.265625,10.489013671875,0.0,0.0,0.0,0.0,-0.0011111111111111111,-0.0,-0.0011111111111111111,-0.15,1.83,9.62,11.748042912
1671151405.3093832,0,-112.51751708984375,195.516357421875,90.357177734375,1,-102.12396240234375,115.13916015625,-293.736083984375,2,-50.75457763671875,116.18115234375,-309.059326171875,3,158.051025390625,196.287841796875,10.457763671875,0.0,0.0,0.0,0.0,-0.0011111111111111111,-0.0,-0.0011111111111111111,-0.15,1.83,9.62,11.748042912
1671151405.3193913,0,-112.44580078125,195.51171875,90.3486328125,1,-102.12847900390625,115.1376953125,-293.73828125,2,-50.68890380859375,116.1943359375,-309.031494140625,3,158.15673828125,196.305419921875,10.492431640625,0.0,0.0,0.0,0.0,-0.0033333333333333335,0.0011111111111111111,-0.0,-0.17,1.82,9.63,11.715107552000001
1671151405.3293586,0,-112.50323486328125,195.57080078125,90.363037109375,1,-102.1175537109375,115.1513671875,-293.755126953125,2,-50.64300537109375,116.216552734375,-309.037353515625,3,158.11181640625,196.3466796875,10.477783203125,0.0,0.0,0.0,0.0,-0.0033333333333333335,0.0011111111111111111,-0.0,-0.17,1.82,9.63,11.715107552000001
1671151405.339321,0,-112.51373291015625,195.546142578125,90.38232421875,1,-102.1260986328125,115.1376953125,-293.76220703125,2,-50.69464111328125,116.1650390625,-309.060791015625,3,158.1094970703125,196.30224609375,10.50830078125,0.0,0.0,0.0,0.0,-0.0033333333333333335,0.0011111111111111111,-0.0,-0.17,1.82,9.63,11.715107552000001
1671151405.3494115,0,-112.53021240234375,195.5166015625,90.35693359375,1,-102.14215087890625,115.1328125,-293.766357421875,2,-50.6358642578125,116.145263671875,-309.034912109375,3,158.0833740234375,196.281005859375,10.509033203125,0.0,0.0,0.0,0.0,-0.0033333333333333335,0.0011111111111111111,-0.0,-0.17,1.82,9.63,11.715107552000001
1671151405.3593524,0,-112.517578125,195.5859375,90.377197265625,1,-102.120849609375,115.11767578125,-293.751953125,2,-50.62890625,116.136962890625,-309.039306640625,3,158.0693359375,196.273193359375,10.50341796875,0.0,0.0,0.0,0.0,-0.0033333333333333335,0.0011111111111111111,-0.0,-0.17,1.82,9.63,11.715107552000001
1671151405.3693395,0,-112.47918701171875,195.50390625,90.34423828125,1,-102.15362548828125,115.08984375,-293.734619140625,2,-50.50494384765625,116.07666015625,-309.02880859375,3,158.0853271484375,196.333251953125,10.474365234375,0.0,0.0,0.0,0.0,0.0011111111111111111,-0.0022222222222222222,-0.0011111111111111111,-0.16,1.86,9.61,11.751336448
1671151405.379321,0,-112.52911376953125,195.543212890625,90.3662109375,1,-102.146484375,115.1259765625,-293.728515625,2,-50.516357421875,116.045166015625,-309.043701171875,3,158.1571044921875,196.272705078125,10.490234375,0.0,0.0,0.0,0.0,0.0011111111111111111,-0.0022222222222222222,-0.0011111111111111111,-0.16,1.86,9.61,11.751336448
1671151405.3893213,0,-112.52374267578125,195.54248046875,90.349365234375,1,-102.12939453125,115.12060546875,-293.74169921875,2,-50.6728515625,116.14111328125,-309.01708984375,3,158.103515625,196.329833984375,10.48388671875,0.0,0.0,0.0,0.0,0.0011111111111111111,-0.0022222222222222222,-0.0011111111111111111,-0.16,1.86,9.61,11.751336448
1671151405.3993762,0,-112.49468994140625,195.5322265625,90.380859375,1,-102.1268310546875,115.123046875,-293.73681640625,2,-50.5418701171875,116.027099609375,-309.031982421875,3,158.065185546875,196.279541015625,10.51171875,0.0,0.0,0.0,0.0,0.0011111111111111111,-0.0022222222222222222,-0.0011111111111111111,-0.16,1.86,9.61,11.751336448
1671151405.4093893,0,-112.55010986328125,195.557373046875,90.37890625,1,-102.11944580078125,115.127685546875,-293.742431640625,2,-50.75927734375,116.115966796875,-309.03662109375,3,158.0753173828125,196.287841796875,10.463134765625,0.0,0.0,0.0,0.0,0.0011111111111111111,-0.0022222222222222222,-0.0011111111111111111,-0.16,1.86,9.61,11.751336448
1671151405.4193845,0,-112.51885986328125,195.49560546875,90.35107421875,1,-102.1094970703125,115.134765625,-293.746826171875,2,-50.59918212890625,116.053955078125,-309.041015625,3,158.075927734375,196.342529296875,10.438720703125,0.0,0.0,0.0,0.0,0.0,-0.0033333333333333335,-0.0,-0.17,1.83,9.63,11.748042912
1671151405.4293904,0,-112.546142578125,195.546142578125,90.383544921875,1,-102.13726806640625,115.11865234375,-293.7216796875,2,-50.6434326171875,116.083740234375,-309.02392578125,3,158.111328125,196.321533203125,10.50244140625,0.0,0.0,0.0,0.0,0.0,-0.0033333333333333335,-0.0,-0.17,1.83,9.63,11.748042912
1671151405.4393704,0,-112.47222900390625,195.575439453125,90.3828125,1,-102.109375,115.14208984375,-293.754638671875,2,-50.705078125,116.134765625,-309.056396484375,3,158.1304931640625,196.313232421875,10.494140625,0.0,0.0,0.0,0.0,0.0,-0.0033333333333333335,-0.0,-0.17,1.83,9.63,11.748042912
1671151405.4493785,0,-112.504638671875,195.54345703125,90.36669921875,1,-102.14208984375,115.115234375,-293.75732421875,2,-50.72222900390625,116.149658203125,-309.032470703125,3,158.0517578125,196.30810546875,10.4892578125,0.0,0.0,0.0,0.0,0.0,-0.0033333333333333335,-0.0,-0.17,1.83,9.63,11.748042912
1671151405.4594123,0,-112.50042724609375,195.565185546875,90.35986328125,1,-102.11444091796875,115.14013671875,-293.73779296875,2,-50.89605712890625,116.2138671875,-309.0966796875,3,158.07373046875,196.285888671875,10.49365234375,0.0,0.0,0.0,0.0,0.0,-0.0033333333333333335,-0.0,-0.17,1.83,9.63,11.748042912
1671151405.4693856,0,-112.545166015625,195.524658203125,90.323486328125,1,-102.115234375,115.142822265625,-293.75732421875,2,-50.62554931640625,116.064208984375,-309.03369140625,3,158.108154296875,196.326416015625,10.452392578125,0.0,0.0,0.0,0.0,0.0011111111111111111,-0.0011111111111111111,-0.0033333333333333335,-0.16,1.82,9.63,11.734868768
1671151405.479389,0,-112.5146484375,195.518310546875,90.357666015625,1,-102.14678955078125,115.1298828125,-293.77099609375,2,-50.73590087890625,116.1318359375,-309.0458984375,3,158.0814208984375,196.30419921875,10.500732421875,0.0,0.0,0.0,0.0,0.0011111111111111111,-0.0011111111111111111,-0.0033333333333333335,-0.16,1.82,9.63,11.734868768
1671151405.489372,0,-112.52191162109375,195.548583984375,90.356689453125,1,-102.1187744140625,115.155517578125,-293.76123046875,2,-50.670166015625,116.102294921875,-309.072509765625,3,158.1160888671875,196.269775390625,10.4892578125,0.0,0.0,0.0,0.0,0.0011111111111111111,-0.0011111111111111111,-0.0033333333333333335,-0.16,1.82,9.63,11.734868768
1671151405.4993784,0,-112.51361083984375,195.55078125,90.374267578125,1,-102.1087646484375,115.15185546875,-293.70947265625,2,-50.72796630859375,116.05908203125,-309.00537109375,3,158.08447265625,196.284423828125,10.490966796875,0.0,0.0,0.0,0.0,0.0011111111111111111,-0.0011111111111111111,-0.0033333333333333335,-0.16,1.82,9.63,11.734868768
1671151405.5093906,0,-112.3929443359375,195.5830078125,90.3662109375,1,-102.1124267578125,115.15625,-293.763427734375,2,-50.8070068359375,116.134765625,-309.06640625,3,158.0382080078125,196.319580078125,10.4609375,0.0,0.0,0.0,0.0,0.0011111111111111111,-0.0011111111111111111,-0.0033333333333333335,-0.16,1.82,9.63,11.734868768
1671151405.519389,0,-112.4901123046875,195.5361328125,90.34326171875,1,-102.1251220703125,115.127685546875,-293.7421875,2,-50.7255859375,116.09765625,-309.05517578125,3,158.168212890625,196.297119140625,10.488525390625,0.0,0.0,0.0,0.0,-0.28444444444444444,-0.0022222222222222222,0.0011111111111111111,-0.16,1.82,9.62,11.734868768
1671151405.5293906,0,-112.50775146484375,195.56884765625,90.372314453125,1,-102.13470458984375,115.12060546875,-293.73681640625,2,-50.72900390625,116.10107421875,-309.052490234375,3,158.1617431640625,196.28125,10.49462890625,0.0,0.0,0.0,0.0,-0.28444444444444444,-0.0022222222222222222,0.0011111111111111111,-0.16,1.82,9.62,11.734868768
1671151405.5393722,0,-112.39263916015625,195.586669921875,90.3515625,1,-102.13970947265625,115.09716796875,-293.736083984375,2,-50.7437744140625,116.09375,-309.052001953125,3,158.154541015625,196.305419921875,10.478515625,0.0,0.0,0.0,0.0,-0.28444444444444444,-0.0022222222222222222,0.0011111111111111111,-0.16,1.82,9.62,11.734868768
1671151405.5493731,0,-112.48419189453125,195.55859375,90.366943359375,1,-102.1048583984375,115.127685546875,-293.709716796875,2,-50.74517822265625,116.085205078125,-309.049560546875,3,158.06005859375,196.283935546875,10.48046875,0.0,0.0,0.0,0.0,-0.28444444444444444,-0.0022222222222222222,0.0011111111111111111,-0.16,1.82,9.62,11.734868768
1671151405.5593832,0,-112.41290283203125,195.61376953125,90.347900390625,1,-102.1229248046875,115.122314453125,-293.734130859375,2,-50.8604736328125,116.10791015625,-309.065185546875,3,158.0347900390625,196.273193359375,10.462646484375,0.0,0.0,0.0,0.0,-0.28444444444444444,-0.0022222222222222222,0.0011111111111111111,-0.16,1.82,9.62,11.734868768
1671151405.5693817,0,-112.45703125,195.58642578125,90.356689453125,1,-102.1199951171875,115.154296875,-293.74609375,2,-50.7281494140625,116.05908203125,-309.08544921875,3,158.111572265625,196.306396484375,10.478515625,0.0,0.0,0.0,0.0,0.0011111111111111111,-0.0,0.0011111111111111111,-0.16,1.83,9.62,11.74145584
1671151405.5793884,0,-112.501953125,195.5263671875,90.35986328125,1,-102.132568359375,115.121337890625,-293.741455078125,2,-50.7320556640625,116.05078125,-309.049072265625,3,158.1060791015625,196.2822265625,10.49755859375,0.0,0.0,0.0,0.0,0.0011111111111111111,-0.0,0.0011111111111111111,-0.16,1.83,9.62,11.74145584
1671151405.589448,0,-112.5023193359375,195.54345703125,90.341064453125,1,-102.12982177734375,115.11181640625,-293.7626953125,2,-50.77374267578125,116.05517578125,-309.04736328125,3,158.1217041015625,196.3212890625,10.48291015625,0.0,0.0,0.0,0.0,0.0011111111111111111,-0.0,0.0011111111111111111,-0.16,1.83,9.62,11.74145584
1671151405.599371,0,-112.48822021484375,195.53564453125,90.3662109375,1,-102.1256103515625,115.125,-293.727294921875,2,-50.64178466796875,116.027587890625,-309.041259765625,3,158.043212890625,196.304931640625,10.456298828125,0.0,0.0,0.0,0.0,0.0011111111111111111,-0.0,0.0011111111111111111,-0.16,1.83,9.62,11.74145584
1671151405.60937,0,-112.47930908203125,195.552978515625,90.356201171875,1,-102.1221923828125,115.1259765625,-293.73974609375,2,-50.79559326171875,116.049560546875,-309.070068359375,3,158.05517578125,196.31298828125,10.468017578125,0.0,0.0,0.0,0.0,0.0011111111111111111,-0.0,0.0011111111111111111,-0.16,1.83,9.62,11.74145584
1671151405.619384,0,-112.46722412109375,195.5224609375,90.342529296875,1,-102.12353515625,115.13232421875,-293.7412109375,2,-50.736572265625,116.09130859375,-309.078857421875,3,158.093505859375,196.338134765625,10.496337890625,0.0,0.0,0.0,0.0,0.0022222222222222222,-0.0033333333333333335,-0.0011111111111111111,-0.13,1.83,9.63,11.718401088
1671151405.6293817,0,-112.5257568359375,195.565185546875,90.367919921875,1,-102.11981201171875,115.138671875,-293.736328125,2,-50.58258056640625,116.009033203125,-309.04931640625,3,158.1480712890625,196.281005859375,10.524169921875,0.0,0.0,0.0,0.0,0.0022222222222222222,-0.0033333333333333335,-0.0011111111111111111,-0.13,1.83,9.63,11.718401088
1671151405.6393764,0,-112.55328369140625,195.518310546875,90.372802734375,1,-102.13409423828125,115.112060546875,-293.77490234375,2,-50.61883544921875,116.00244140625,-309.072509765625,3,158.1163330078125,196.30517578125,10.5029296875,0.0,0.0,0.0,0.0,0.0022222222222222222,-0.0033333333333333335,-0.0011111111111111111,-0.13,1.83,9.63,11.718401088
1671151405.6494,0,-112.4571533203125,195.5947265625,90.353271484375,1,-102.13018798828125,115.114990234375,-293.735595703125,2,-50.66900634765625,116.025390625,-309.06982421875,3,158.0869140625,196.293212890625,10.469970703125,0.0,0.0,0.0,0.0,0.0022222222222222222,-0.0033333333333333335,-0.0011111111111111111,-0.13,1.83,9.63,11.718401088
1671151405.6593528,0,-112.46124267578125,195.53369140625,90.369384765625,1,-102.12939453125,115.123291015625,-293.737548828125,2,-50.75946044921875,116.04443359375,-309.068115234375,3,158.0748291015625,196.298095703125,10.463623046875,0.0,0.0,0.0,0.0,0.0022222222222222222,-0.0033333333333333335,-0.0011111111111111111,-0.13,1.83,9.63,11.718401088
1671151405.6693218,0,-112.54486083984375,195.5419921875,90.34912109375,1,-102.123291015625,115.126708984375,-293.735595703125,2,-50.69464111328125,116.05712890625,-309.06298828125,3,158.1575927734375,196.307861328125,10.45458984375,0.0,0.0,-2.1,2.1,0.0011111111111111111,-0.0022222222222222222,-0.2833333333333333,-0.14,1.83,9.63,11.715107552000001
1671151405.6793213,0,-112.5247802734375,195.53759765625,90.359130859375,1,-102.1214599609375,115.14306640625,-293.75439453125,2,-50.76611328125,116.079345703125,-309.098388671875,3,158.13720703125,196.3291015625,10.45947265625,0.0,0.0,-2.1,2.1,0.0011111111111111111,-0.0022222222222222222,-0.2833333333333333,-0.14,1.83,9.63,11.715107552000001
1671151405.6893206,0,-112.5523681640625,195.547119140625,90.3330078125,1,-102.11566162109375,115.128173828125,-293.771728515625,2,-50.8841552734375,116.146484375,-309.119873046875,3,158.1202392578125,196.31689453125,10.497802734375,0.0,0.0,-2.1,2.1,0.0011111111111111111,-0.0022222222222222222,-0.2833333333333333,-0.14,1.83,9.63,11.715107552000001
1671151405.6993608,0,-112.6153564453125,195.585693359375,90.319091796875,1,-102.09375,115.138671875,-293.76318359375,2,-50.73516845703125,116.06396484375,-309.062744140625,3,158.0577392578125,196.31787109375,10.429931640625,0.0,0.0,-2.1,2.1,0.0011111111111111111,-0.0022222222222222222,-0.2833333333333333,-0.14,1.83,9.63,11.715107552000001
1671151405.7093883,0,-112.576416015625,195.591064453125,90.353515625,1,-102.10693359375,115.154541015625,-293.770751953125,2,-50.8433837890625,116.09326171875,-309.046630859375,3,158.106689453125,196.272216796875,10.455078125,0.0,0.0,-2.1,2.1,0.0011111111111111111,-0.0022222222222222222,-0.2833333333333333,-0.14,1.83,9.63,11.715107552000001
1671151405.7193863,0,-112.58221435546875,195.554443359375,90.3388671875,1,-102.10498046875,115.135009765625,-293.761474609375,2,-50.73748779296875,116.106689453125,-309.060302734375,3,158.089111328125,196.330810546875,10.481689453125,-0.000191852986478766,0.0001438897398590745,-18.6,18.6,0.0,-0.0033333333333333335,-0.2822222222222222,-0.2,1.87,9.63,11.748042912
1671151405.7294018,0,-112.6229248046875,195.640625,90.333984375,1,-102.07421875,115.11376953125,-293.7177734375,2,-50.7012939453125,116.028564453125,-309.005126953125,3,158.094970703125,196.358642578125,10.487548828125,-0.000191852986478766,0.0001438897398590745,-18.6,18.6,0.0,-0.0033333333333333335,-0.2822222222222222,-0.2,1.87,9.63,11.748042912
1671151405.7393854,0,-112.646484375,195.63427734375,90.225341796875,1,-101.9144287109375,115.133056640625,-293.71142578125,2,-50.49591064453125,116.051513671875,-308.989501953125,3,158.028076171875,196.472900390625,10.380859375,-0.000191852986478766,0.0001438897398590745,-18.6,18.6,0.0,-0.0033333333333333335,-0.2822222222222222,-0.2,1.87,9.63,11.748042912
1671151405.749394,0,-112.66619873046875,195.68505859375,90.209228515625,1,-101.39892578125,115.189453125,-293.760498046875,2,-49.98974609375,116.114013671875,-308.92626953125,3,158.1162109375,196.4208984375,10.86181640625,-0.000191852986478766,0.0001438897398590745,-18.6,18.6,0.0,-0.0033333333333333335,-0.2822222222222222,-0.2,1.87,9.63,11.748042912
1671151405.759345,0,-112.83941650390625,195.61279296875,90.148193359375,1,-100.36712646484375,115.265869140625,-293.955810546875,2,-49.02117919921875,116.2216796875,-308.939208984375,3,158.15087890625,196.3935546875,11.604736328125,-0.000191852986478766,0.0001438897398590745,-18.6,18.6,0.0,-0.0033333333333333335,-0.2822222222222222,-0.2,1.87,9.63,11.748042912
1671151405.769324,0,-113.01287841796875,195.466796875,89.916748046875,1,-99.1292724609375,115.269775390625,-294.23046875,2,-47.63275146484375,116.332275390625,-309.079345703125,3,158.176025390625,196.280029296875,12.638916015625,-0.000191852986478766,0.0001438897398590745,-18.6,18.6,0.0,-0.0033333333333333335,-0.2822222222222222,-0.2,1.87,9.63,11.748042912
1671151405.7793221,0,-113.4268798828125,195.470703125,89.582763671875,1,-97.431396484375,115.33251953125,-294.657470703125,2,-45.8472900390625,116.43017578125,-309.28759765625,3,158.166748046875,196.210693359375,13.739990234375,-0.00546781011464483,0.008057825432108172,-30.6,30.6,0.0,-0.0044444444444444444,-0.2788888888888889,4.89,1.76,8.76,11.695346336
1671151405.7893422,0,-113.94671630859375,195.371826171875,88.954833984375,1,-95.48199462890625,115.365234375,-295.292236328125,2,-43.8153076171875,116.624267578125,-309.666259765625,3,158.1614990234375,196.172119140625,14.829833984375,-0.00546781011464483,0.008057825432108172,-30.6,30.6,0.0,-0.0044444444444444444,-0.2788888888888889,4.89,1.76,8.76,11.695346336
1671151405.7994015,0,-114.490234375,195.505615234375,88.167236328125,1,-93.32647705078125,115.313720703125,-295.9853515625,2,-41.60150146484375,116.518798828125,-309.904052734375,3,158.1475830078125,196.127685546875,15.916259765625,-0.00546781011464483,0.008057825432108172,-30.6,30.6,0.0,-0.0044444444444444444,-0.2788888888888889,4.89,1.76,8.76,11.695346336
1671151405.809341,0,-115.11651611328125,195.51806640625,87.04931640625,1,-90.63311767578125,115.3017578125,-296.862060546875,2,-38.79962158203125,116.72412109375,-310.595458984375,3,158.0897216796875,196.20703125,17.2548828125,-0.00546781011464483,0.008057825432108172,-30.6,30.6,0.0,-0.0044444444444444444,-0.2788888888888889,4.89,1.76,8.76,11.695346336
1671151405.8193247,0,-115.952392578125,195.609375,85.869384765625,1,-87.96527099609375,115.266845703125,-297.720947265625,2,-35.91339111328125,116.666015625,-310.989013671875,3,158.156005859375,196.164306640625,18.50830078125,-0.00546781011464483,0.008057825432108172,-30.6,30.6,0.0,-0.0044444444444444444,-0.2788888888888889,4.89,1.76,8.76,11.695346336
1671151405.829322,0,-116.63446044921875,195.669189453125,84.511962890625,1,-84.82086181640625,115.287841796875,-298.789794921875,2,-32.7091064453125,116.901123046875,-311.55615234375,3,157.9918212890625,196.089111328125,19.966552734375,-0.057268116463911646,0.07136931097010095,-40.3,40.3,0.0033333333333333335,0.15777777777777777,-0.5544444444444444,-3.03,2.05,9.55,11.711814016
1671151405.8393571,0,-117.31231689453125,195.636962890625,83.31884765625,1,-82.03875732421875,115.385498046875,-299.72021484375,2,-29.959228515625,116.74658203125,-311.904052734375,3,157.880126953125,195.962646484375,21.385986328125,-0.057268116463911646,0.07136931097010095,-40.3,40.3,0.0033333333333333335,0.15777777777777777,-0.5544444444444444,-3.03,2.05,9.55,11.711814016
1671151405.8493729,0,-118.47247314453125,195.44873046875,81.833984375,1,-78.4095458984375,115.312255859375,-300.76904296875,2,-26.3326416015625,116.570556640625,-312.235595703125,3,157.6241455078125,195.87158203125,23.08544921875,-0.057268116463911646,0.07136931097010095,-40.3,40.3,0.0033333333333333335,0.15777777777777777,-0.5544444444444444,-3.03,2.05,9.55,11.711814016
1671151405.859411,0,-119.6102294921875,195.381103515625,80.158935546875,1,-74.42718505859375,115.2294921875,-302.033203125,2,-22.2535400390625,116.21044921875,-312.646240234375,3,157.371337890625,195.785400390625,25.091796875,-0.057268116463911646,0.07136931097010095,-40.3,40.3,0.0033333333333333335,0.15777777777777777,-0.5544444444444444,-3.03,2.05,9.55,11.711814016
1671151405.8693833,0,-120.39642333984375,195.125244140625,78.601806640625,1,-70.630859375,115.35595703125,-303.092529296875,2,-18.2725830078125,116.425048828125,-312.998291015625,3,157.276123046875,195.88525390625,26.896240234375,-0.14758290984879074,0.1461440124502,-44.8,44.8,0.0,-0.011111111111111112,-0.9833333333333333,-0.11,1.11,9.38,11.668998048
1671151405.8793895,0,-121.49810791015625,194.8681640625,76.87548828125,1,-66.10357666015625,115.576416015625,-304.50634765625,2,-13.6082763671875,116.6201171875,-313.674072265625,3,157.002685546875,195.91259765625,28.871337890625,-0.14758290984879074,0.1461440124502,-44.8,44.8,0.0,-0.011111111111111112,-0.9833333333333333,-0.11,1.11,9.38,11.668998048
1671151405.88947,0,-122.4451904296875,195.2001953125,74.782958984375,1,-61.63818359375,115.791015625,-305.68505859375,2,-8.8486328125,116.958251953125,-314.1455078125,3,156.733154296875,195.87060546875,31.09912109375,-0.14758290984879074,0.1461440124502,-44.8,44.8,0.0,-0.011111111111111112,-0.9833333333333333,-0.11,1.11,9.38,11.668998048
1671151405.899375,0,-123.36181640625,195.38525390625,72.91943359375,1,-57.29290771484375,116.01220703125,-306.707275390625,2,-4.770751953125,117.47314453125,-314.490234375,3,156.0968017578125,196.08447265625,33.1513671875,-0.14758290984879074,0.1461440124502,-44.8,44.8,0.0,-0.011111111111111112,-0.9833333333333333,-0.11,1.11,9.38,11.668998048
1671151405.9093795,0,-124.2989501953125,195.0927734375,70.828369140625,1,-52.1220703125,116.129638671875,-307.84765625,2,-0.1146240234375,118.0888671875,-314.9169921875,3,155.5103759765625,196.254150390625,35.403076171875,-0.14758290984879074,0.1461440124502,-44.8,44.8,0.0,-0.011111111111111112,-0.9833333333333333,-0.11,1.11,9.38,11.668998048
1671151405.9193835,0,-125.0125732421875,195.109619140625,68.787841796875,1,-47.75177001953125,116.0537109375,-308.744140625,2,4.421630859375,118.0625,-315.09423828125,3,155.038818359375,196.533203125,37.334228515625,-0.2809207354515331,0.28706003101885363,-45.0,45.0,0.024444444444444446,0.028888888888888888,-1.39,-1.4,1.31,9.63,11.734868768
1671151405.9293525,0,-125.76788330078125,195.193115234375,66.599365234375,1,-42.924560546875,116.08203125,-309.85986328125,2,9.3087158203125,118.30615234375,-315.397216796875,3,154.3984375,196.67431640625,39.745361328125,-0.2809207354515331,0.28706003101885363,-45.0,45.0,0.024444444444444446,0.028888888888888888,-1.39,-1.4,1.31,9.63,11.734868768
1671151405.9393423,0,-126.87237548828125,195.127197265625,64.298583984375,1,-37.8170166015625,116.303955078125,-311.030029296875,2,14.5699462890625,118.3369140625,-315.409423828125,3,153.8614501953125,196.73583984375,42.053466796875,-0.2809207354515331,0.28706003101885363,-45.0,45.0,0.024444444444444446,0.028888888888888888,-1.39,-1.4,1.31,9.63,11.734868768
1671151405.949382,0,-127.85626220703125,195.015869140625,62.244140625,1,-33.16912841796875,116.22119140625,-311.908447265625,2,19.8419189453125,117.981201171875,-315.61083984375,3,153.541748046875,196.505859375,44.234130859375,-0.2809207354515331,0.28706003101885363,-45.0,45.0,0.024444444444444446,0.028888888888888888,-1.39,-1.4,1.31,9.63,11.734868768
1671151405.9593718,0,-128.54925537109375,195.25439453125,59.84765625,1,-27.9405517578125,116.140869140625,-312.46630859375,2,25.53662109375,117.750244140625,-315.533935546875,3,153.2259521484375,196.426513671875,46.500244140625,-0.2809207354515331,0.28706003101885363,-45.0,45.0,0.024444444444444446,0.028888888888888888,-1.39,-1.4,1.31,9.63,11.734868768
1671151405.9693391,0,-129.07135009765625,195.205810546875,57.771484375,1,-23.07635498046875,116.279052734375,-313.16162109375,2,30.138671875,117.8125,-314.8798828125,3,152.8492431640625,196.171875,48.62353515625,-0.4481206131677777,0.46346885208607896,-45.0,45.0,0.04888888888888889,-0.06,-1.57,2.0,1.43,9.5,11.701933408
1671151405.9793549,0,-129.861328125,195.24951171875,55.36767578125,1,-17.7110595703125,116.272216796875,-313.73974609375,2,35.792724609375,117.7509765625,-315.002197265625,3,152.2093505859375,196.156005859375,50.9580078125,-0.4481206131677777,0.46346885208607896,-45.0,45.0,0.04888888888888889,-0.06,-1.57,2.0,1.43,9.5,11.701933408
1671151405.9893804,0,-130.5247802734375,195.392333984375,53.099853515625,1,-13.01287841796875,116.499755859375,-314.33056640625,2,40.708251953125,117.746826171875,-314.712646484375,3,151.4012451171875,196.359375,53.03173828125,-0.4481206131677777,0.46346885208607896,-45.0,45.0,0.04888888888888889,-0.06,-1.57,2.0,1.43,9.5,11.701933408
1671151405.9993773,0,-131.18585205078125,195.314208984375,50.64990234375,1,-7.6531982421875,116.570068359375,-314.700439453125,2,46.1898193359375,118.01611328125,-314.35693359375,3,150.601318359375,196.54931640625,55.339599609375,-0.4481206131677777,0.46346885208607896,-45.0,45.0,0.04888888888888889,-0.06,-1.57,2.0,1.43,9.5,11.701933408
1671151406.0093734,0,-131.9332275390625,195.3720703125,48.26025390625,1,-2.8486328125,116.93798828125,-314.876220703125,2,51.6434326171875,118.255859375,-313.923095703125,3,149.7635498046875,196.840576171875,57.631103515625,-0.4481206131677777,0.46346885208607896,-45.0,45.0,0.04888888888888889,-0.06,-1.57,2.0,1.43,9.5,11.701933408
1671151406.01952,0,-132.261962890625,195.580322265625,45.6572265625,1,2.279541015625,117.134765625,-315.154541015625,2,57.0311279296875,118.1494140625,-313.426513671875,3,148.8927001953125,196.787353515625,59.861328125,-0.6151286378975435,0.6162317925697964,-45.0,45.0,0.015555555555555555,-0.017777777777777778,-1.68,1.32,1.68,8.06,11.728281696
1671151406.0294633,0,-132.657470703125,195.755859375,43.41357421875,1,7.3248291015625,116.90283203125,-315.1787109375,2,61.6060791015625,117.978759765625,-312.599853515625,3,148.226318359375,196.74169921875,61.92529296875,-0.6151286378975435,0.6162317925697964,-45.0,45.0,0.015555555555555555,-0.017777777777777778,-1.68,1.32,1.68,8.06,11.728281696
1671151406.0394773,0,-133.0479736328125,195.876708984375,40.8125,1,13.043701171875,116.569580078125,-315.304931640625,2,66.567138671875,117.857666015625,-311.6982421875,3,147.529052734375,196.435791015625,64.088134765625,-0.6151286378975435,0.6162317925697964,-45.0,45.0,0.015555555555555555,-0.017777777777777778,-1.68,1.32,1.68,8.06,11.728281696
1671151406.0494375,0,-133.39910888671875,195.944091796875,38.54052734375,1,17.967529296875,116.327880859375,-315.26220703125,2,71.3477783203125,117.884033203125,-310.739013671875,3,146.8076171875,196.312744140625,66.016845703125,-0.6151286378975435,0.6162317925697964,-45.0,45.0,0.015555555555555555,-0.017777777777777778,-1.68,1.32,1.68,8.06,11.728281696
1671151406.059433,0,-133.89129638671875,195.939208984375,36.017333984375,1,23.4229736328125,116.603515625,-315.291259765625,2,76.7142333984375,118.038330078125,-309.82470703125,3,145.884521484375,196.1689453125,68.362548828125,-0.6151286378975435,0.6162317925697964,-45.0,45.0,0.015555555555555555,-0.017777777777777778,-1.68,1.32,1.68,8.06,11.728281696
1671151406.0693479,0,-134.40533447265625,195.89013671875,33.7001953125,1,28.8250732421875,116.918701171875,-315.397705078125,2,81.840087890625,117.834716796875,-308.818603515625,3,145.203369140625,196.28466796875,70.3642578125,-0.7911057897451916,0.7811294344482957,-45.0,45.0,0.017777777777777778,0.0044444444444444444,-1.6866666666666668,0.48,1.72,9.05,11.72498816
1671151406.0793169,0,-134.97900390625,196.115478515625,31.130615234375,1,34.321533203125,117.151123046875,-315.228271484375,2,86.807373046875,118.012939453125,-307.4853515625,3,144.32421875,196.322509765625,72.536376953125,-0.7911057897451916,0.7811294344482957,-45.0,45.0,0.017777777777777778,0.0044444444444444444,-1.6866666666666668,0.48,1.72,9.05,11.72498816
1671151406.0893164,0,-135.29730224609375,196.051513671875,28.896484375,1,39.2095947265625,117.2841796875,-315.055419921875,2,91.5662841796875,117.69189453125,-306.31787109375,3,143.340576171875,196.42529296875,74.3505859375,-0.7911057897451916,0.7811294344482957,-45.0,45.0,0.017777777777777778,0.0044444444444444444,-1.6866666666666668,0.48,1.72,9.05,11.72498816
1671151406.0993598,0,-135.5826416015625,195.818115234375,26.328369140625,1,44.5543212890625,117.365478515625,-314.599609375,2,96.5616455078125,117.6513671875,-304.776611328125,3,142.151611328125,196.273681640625,76.577392578125,-0.7911057897451916,0.7811294344482957,-45.0,45.0,0.017777777777777778,0.0044444444444444444,-1.6866666666666668,0.48,1.72,9.05,11.72498816
1671151406.109342,0,-135.83880615234375,195.743896484375,23.62939453125,1,49.565673828125,117.274658203125,-313.9677734375,2,101.752197265625,117.62353515625,-303.919189453125,3,140.904541015625,196.1005859375,78.885009765625,-0.7911057897451916,0.7811294344482957,-45.0,45.0,0.017777777777777778,0.0044444444444444444,-1.6866666666666668,0.48,1.72,9.05,11.72498816
1671151406.1193166,0,-135.986083984375,195.78564453125,21.342041015625,1,54.3515625,117.265869140625,-313.069091796875,2,106.46826171875,117.64697265625,-302.539306640625,3,139.84326171875,195.99609375,80.880859375,-0.96703497834622,0.9687136919779092,-45.0,45.0,0.028888888888888888,0.014444444444444444,-1.691111111111111,1.5,1.35,9.2,11.728281696
1671151406.129322,0,-136.06915283203125,196.163330078125,18.947265625,1,59.6343994140625,117.195068359375,-312.089599609375,2,111.515625,117.945068359375,-300.782958984375,3,138.68408203125,196.0419921875,83.1708984375,-0.96703497834622,0.9687136919779092,-45.0,45.0,0.028888888888888888,0.014444444444444444,-1.691111111111111,1.5,1.35,9.2,11.728281696
1671151406.1393275,0,-136.4737548828125,196.427978515625,16.494873046875,1,64.7962646484375,116.902587890625,-311.417236328125,2,115.2496337890625,114.99755859375,-297.1064453125,3,137.41943359375,196.13330078125,85.19677734375,-0.96703497834622,0.9687136919779092,-45.0,45.0,0.028888888888888888,0.014444444444444444,-1.691111111111111,1.5,1.35,9.2,11.728281696
1671151406.149358,0,-136.49835205078125,196.705078125,14.19580078125,1,69.9285888671875,116.94384765625,-310.892578125,2,121.6558837890625,117.7236328125,-297.0751953125,3,136.1851806640625,196.161865234375,86.9736328125,-0.96703497834622,0.9687136919779092,-45.0,45.0,0.028888888888888888,0.014444444444444444,-1.691111111111111,1.5,1.35,9.2,11.728281696
1671151406.1593187,0,-136.28265380859375,196.820068359375,11.546142578125,1,75.2120361328125,116.769775390625,-310.08935546875,2,126.9964599609375,118.19287109375,-295.398681640625,3,134.743408203125,196.14892578125,88.885498046875,-0.96703497834622,0.9687136919779092,-45.0,45.0,0.028888888888888888,0.014444444444444444,-1.691111111111111,1.5,1.35,9.2,11.728281696
1671151406.1693237,0,-136.0843505859375,196.82275390625,9.2587890625,1,79.93310546875,116.82861328125,-308.84375,2,131.868896484375,117.990478515625,-293.1123046875,3,133.57568359375,196.165283203125,90.701171875,-1.1378800628055612,1.1151454839078274,-45.0,45.0,0.03111111111111111,-0.021111111111111112,-1.68,0.39,1.38,9.92,11.715107552000001
1671151406.1793177,0,-135.9183349609375,196.8447265625,6.57666015625,1,85.305908203125,117.09765625,-307.801513671875,2,136.740966796875,117.84375,-291.271728515625,3,132.296630859375,196.0966796875,92.73779296875,-1.1378800628055612,1.1151454839078274,-45.0,45.0,0.03111111111111111,-0.021111111111111112,-1.68,0.39,1.38,9.92,11.715107552000001
1671151406.1893172,0,-136.0546875,196.365478515625,3.993408203125,1,90.6058349609375,117.037841796875,-306.624267578125,2,141.797607421875,117.922607421875,-289.193359375,3,130.780517578125,196.1982421875,94.75,-1.1378800628055612,1.1151454839078274,-45.0,45.0,0.03111111111111111,-0.021111111111111112,-1.68,0.39,1.38,9.92,11.715107552000001
1671151406.199372,0,-136.09002685546875,196.353759765625,1.43310546875,1,95.5042724609375,116.62646484375,-305.285888671875,2,146.6458740234375,117.038818359375,-286.24267578125,3,129.3848876953125,196.14404296875,96.55810546875,-1.1378800628055612,1.1151454839078274,-45.0,45.0,0.03111111111111111,-0.021111111111111112,-1.68,0.39,1.38,9.92,11.715107552000001
1671151406.2093198,0,-136.09661865234375,196.375244140625,-1.24951171875,1,100.5430908203125,116.443359375,-303.75732421875,2,151.799560546875,117.135498046875,-283.953857421875,3,127.9349365234375,196.203857421875,98.32763671875,-1.1378800628055612,1.1151454839078274,-45.0,45.0,0.03111111111111111,-0.021111111111111112,-1.68,0.39,1.38,9.92,11.715107552000001
1671151406.21932,0,-136.01361083984375,196.233154296875,-3.513916015625,1,105.679443359375,116.810791015625,-302.512939453125,2,156.0069580078125,117.54052734375,-282.10205078125,3,126.6810302734375,196.262939453125,100.103515625,-1.2996121304071608,1.2803788685126647,-45.0,45.0,0.05333333333333334,0.024444444444444446,-1.7177777777777778,1.06,1.25,10.12,11.728281696
1671151406.2293181,0,-135.693359375,196.28955078125,-6.052978515625,1,110.9761962890625,116.6708984375,-300.796630859375,2,160.8978271484375,117.714599609375,-280.071533203125,3,125.2392578125,196.270751953125,101.8427734375,-1.2996121304071608,1.2803788685126647,-45.0,45.0,0.05333333333333334,0.024444444444444446,-1.7177777777777778,1.06,1.25,10.12,11.728281696
1671151406.2393172,0,-135.2169189453125,196.581298828125,-8.693115234375,1,116.08740234375,116.332763671875,-298.740966796875,2,165.7333984375,117.5888671875,-277.439208984375,3,123.6317138671875,196.224853515625,103.75244140625,-1.2996121304071608,1.2803788685126647,-45.0,45.0,0.05333333333333334,0.024444444444444446,-1.7177777777777778,1.06,1.25,10.12,11.728281696
1671151406.2493863,0,-134.66668701171875,196.677978515625,-10.95751953125,1,120.919677734375,116.130615234375,-296.797607421875,2,169.9942626953125,117.783935546875,-275.359619140625,3,121.9962158203125,196.081298828125,105.42724609375,-1.2996121304071608,1.2803788685126647,-45.0,45.0,0.05333333333333334,0.024444444444444446,-1.7177777777777778,1.06,1.25,10.12,11.728281696
1671151406.2593184,0,-134.333984375,196.755859375,-13.49755859375,1,126.597412109375,116.533203125,-295.02783203125,2,174.4140625,117.4755859375,-272.8271484375,3,120.38818359375,196.18505859375,107.2529296875,-1.2996121304071608,1.2803788685126647,-45.0,45.0,0.05333333333333334,0.024444444444444446,-1.7177777777777778,1.06,1.25,10.12,11.728281696
1671151406.2693183,0,-134.0233154296875,196.75830078125,-15.843994140625,1,131.1436767578125,116.359619140625,-293.160888671875,2,178.5501708984375,117.240234375,-270.43701171875,3,118.9578857421875,196.171875,108.948486328125,-1.4785150402986103,1.4651812577383359,-45.0,45.0,0.05555555555555555,-0.034444444444444444,-1.6888888888888889,-1.02,1.32,9.48,11.718401088
1671151406.2793176,0,-133.5084228515625,196.68798828125,-18.361083984375,1,135.8983154296875,116.067138671875,-291.170654296875,2,183.20703125,117.093505859375,-267.413818359375,3,117.3485107421875,196.142822265625,110.767333984375,-1.4785150402986103,1.4651812577383359,-45.0,45.0,0.05555555555555555,-0.034444444444444444,-1.6888888888888889,-1.02,1.32,9.48,11.718401088
1671151406.2893174,0,-133.0926513671875,196.715087890625,-20.9541015625,1,140.9422607421875,116.308349609375,-289.176513671875,2,187.8505859375,117.251220703125,-264.71142578125,3,115.6251220703125,196.112060546875,112.419921875,-1.4785150402986103,1.4651812577383359,-45.0,45.0,0.05555555555555555,-0.034444444444444444,-1.6888888888888889,-1.02,1.32,9.48,11.718401088
1671151406.2993724,0,-132.5634765625,196.841552734375,-23.37158203125,1,145.8507080078125,116.588134765625,-287.205322265625,2,191.9805908203125,117.135498046875,-261.924072265625,3,114.08203125,196.082763671875,113.8173828125,-1.4785150402986103,1.4651812577383359,-45.0,45.0,0.05555555555555555,-0.034444444444444444,-1.6888888888888889,-1.02,1.32,9.48,11.718401088
1671151406.3093183,0,-131.9786376953125,196.9814453125,-25.975341796875,1,151.0003662109375,116.390869140625,-284.86572265625,2,196.38916015625,117.16845703125,-258.8154296875,3,112.4141845703125,196.13720703125,115.47265625,-1.4785150402986103,1.4651812577383359,-45.0,45.0,0.05555555555555555,-0.034444444444444444,-1.6888888888888889,-1.02,1.32,9.48,11.718401088
1671151406.3193185,0,-131.35906982421875,196.907958984375,-28.33447265625,1,155.3641357421875,116.58203125,-283.054931640625,2,200.5072021484375,117.09228515625,-256.343505859375,3,110.8603515625,196.135009765625,116.859619140625,-1.4785150402986103,1.4651812577383359,-45.0,45.0,0.05555555555555555,-0.034444444444444444,-1.6888888888888889,-1.02,1.32,9.48,11.718401088
1671151406.329318,0,-130.62969970703125,197.10693359375,-31.1474609375,1,160.47265625,116.731689453125,-281.05224609375,2,204.5029296875,117.263427734375,-253.59033203125,3,109.1748046875,196.23681640625,118.287841796875,-1.6472977051533046,1.6140112119992385,-45.0,45.0,0.03,0.028888888888888888,-1.7122222222222223,0.09,1.74,11.04,11.721694624000001
1671151406.3393176,0,-130.0430908203125,196.72021484375,-33.625244140625,1,165.1700439453125,116.785888671875,-278.7158203125,2,208.60546875,117.298095703125,-250.52783203125,3,107.2921142578125,196.12158203125,119.889892578125,-1.6472977051533046,1.6140112119992385,-45.0,45.0,0.03,0.028888888888888888,-1.7122222222222223,0.09,1.74,11.04,11.721694624000001
1671151406.3493717,0,-129.56280517578125,196.467041015625,-35.76220703125,1,169.5181884765625,116.888427734375,-276.350341796875,2,212.88427734375,117.08837890625,-247.63232421875,3,105.4976806640625,195.774169921875,121.507080078125,-1.6472977051533046,1.6140112119992385,-45.0,45.0,0.03,0.028888888888888888,-1.7122222222222223,0.09,1.74,11.04,11.721694624000001
1671151406.3593311,0,-128.68792724609375,196.58837890625,-38.111328125,1,174.7723388671875,116.78662109375,-273.92626953125,2,217.89404296875,117.06103515625,-243.827880859375,3,103.52001953125,195.83154296875,123.062255859375,-1.6472977051533046,1.6140112119992385,-45.0,45.0,0.03,0.028888888888888888,-1.7122222222222223,0.09,1.74,11.04,11.721694624000001
1671151406.3693185,0,-127.82818603515625,196.421142578125,-40.05419921875,1,178.9207763671875,116.821044921875,-271.43408203125,2,222.0572509765625,117.511474609375,-240.484130859375,3,101.821044921875,195.850830078125,124.457763671875,-1.6472977051533046,1.6140112119992385,-45.0,45.0,0.03,0.028888888888888888,-1.7122222222222223,0.09,1.74,11.04,11.721694624000001
1671151406.3793185,0,-126.87152099609375,196.49169921875,-42.333984375,1,183.6871337890625,116.9775390625,-269.00048828125,2,226.2718505859375,117.1337890625,-237.16162109375,3,99.91357421875,195.98388671875,125.805908203125,-1.8222196655753193,1.801163800309275,-36.2,36.2,0.04555555555555556,-0.04555555555555556,-1.68,0.71,1.48,11.04,11.738162304000001
1671151406.389318,0,-126.05902099609375,196.488525390625,-44.804443359375,1,187.9251708984375,116.8388671875,-266.414794921875,2,230.3173828125,117.08056640625,-233.70654296875,3,98.009033203125,195.99755859375,127.147705078125,-1.8222196655753193,1.801163800309275,-36.2,36.2,0.04555555555555556,-0.04555555555555556,-1.68,0.71,1.48,11.04,11.738162304000001
1671151406.3993757,0,-125.263916015625,196.63720703125,-46.92041015625,1,191.736083984375,117.0078125,-263.9775390625,2,234.2520751953125,117.33837890625,-230.39306640625,3,96.261962890625,196.039306640625,128.285888671875,-1.8222196655753193,1.801163800309275,-36.2,36.2,0.04555555555555556,-0.04555555555555556,-1.68,0.71,1.48,11.04,11.738162304000001
1671151406.4093177,0,-124.29443359375,196.709228515625,-49.588623046875,1,196.176513671875,116.484130859375,-261.52880859375,2,237.5877685546875,117.49462890625,-226.61181640625,3,94.4188232421875,196.02978515625,129.364990234375,-1.8222196655753193,1.801163800309275,-36.2,36.2,0.04555555555555556,-0.04555555555555556,-1.68,0.71,1.48,11.04,11.738162304000001
1671151406.419318,0,-123.5732421875,196.806884765625,-51.777099609375,1,200.12353515625,116.475830078125,-258.8603515625,2,241.4248046875,117.37255859375,-223.916748046875,3,92.820068359375,196.239013671875,130.418212890625,-1.995942544831842,1.9442381649758147,-6.6,6.6,0.03888888888888889,-0.005555555555555556,-1.6733333333333333,-0.65,1.41,9.48,11.738162304000001
1671151406.4293177,0,-122.45648193359375,197.171142578125,-54.247314453125,1,203.9949951171875,116.555908203125,-255.85107421875,2,244.8046875,117.3564453125,-220.432861328125,3,91.1156005859375,196.292724609375,131.5625,-1.995942544831842,1.9442381649758147,-6.6,6.6,0.03888888888888889,-0.005555555555555556,-1.6733333333333333,-0.65,1.41,9.48,11.738162304000001
1671151406.4393237,0,-121.449462890625,197.3291015625,-56.097900390625,1,207.60205078125,116.55078125,-253.404296875,2,247.7840576171875,117.381591796875,-217.472900390625,3,89.812255859375,196.452392578125,132.41650390625,-1.995942544831842,1.9442381649758147,-6.6,6.6,0.03888888888888889,-0.005555555555555556,-1.6733333333333333,-0.65,1.41,9.48,11.738162304000001
1671151406.4493818,0,-120.620361328125,197.4970703125,-57.217529296875,1,210.372802734375,116.596923828125,-251.401611328125,2,250.2401123046875,117.6396484375,-215.050537109375,3,88.7591552734375,196.4638671875,133.111572265625,-1.995942544831842,1.9442381649758147,-6.6,6.6,0.03888888888888889,-0.005555555555555556,-1.6733333333333333,-0.65,1.41,9.48,11.738162304000001
1671151406.459323,0,-119.7576904296875,197.567138671875,-58.161865234375,1,212.2498779296875,116.525390625,-249.738525390625,2,252.119384765625,117.809814453125,-212.889892578125,3,87.8675537109375,196.408935546875,133.84423828125,-1.995942544831842,1.9442381649758147,-6.6,6.6,0.03888888888888889,-0.005555555555555556,-1.6733333333333333,-0.65,1.41,9.48,11.738162304000001
1671151406.4693182,0,-119.14605712890625,197.54833984375,-58.77001953125,1,213.84912109375,116.270751953125,-248.431396484375,2,253.40185546875,117.876953125,-211.451416015625,3,87.489990234375,196.46630859375,134.30029296875,-2.1296161131609224,2.0642422080182827,0.3,-0.3,0.056666666666666664,-0.04555555555555556,-1.5055555555555555,-1.12,3.33,8.62,11.721694624000001
1671151406.4793272,0,-118.88519287109375,197.577880859375,-59.217041015625,1,215.0103759765625,116.49658203125,-247.524169921875,2,254.6884765625,117.750732421875,-210.49169921875,3,87.0531005859375,196.495361328125,134.586669921875,-2.1296161131609224,2.0642422080182827,0.3,-0.3,0.056666666666666664,-0.04555555555555556,-1.5055555555555555,-1.12,3.33,8.62,11.721694624000001
1671151406.4893258,0,-118.6895751953125,197.40966796875,-59.4755859375,1,215.748779296875,116.564453125,-247.060546875,2,255.19482421875,117.81298828125,-209.892822265625,3,86.797119140625,196.590576171875,134.752685546875,-2.1296161131609224,2.0642422080182827,0.3,-0.3,0.056666666666666664,-0.04555555555555556,-1.5055555555555555,-1.12,3.33,8.62,11.721694624000001
1671151406.499364,0,-118.620361328125,197.535400390625,-59.601318359375,1,216.083740234375,116.602294921875,-246.86376953125,2,255.4259033203125,117.780517578125,-209.70263671875,3,86.612548828125,196.569091796875,134.736572265625,-2.1296161131609224,2.0642422080182827,0.3,-0.3,0.056666666666666664,-0.04555555555555556,-1.5055555555555555,-1.12,3.33,8.62,11.721694624000001
1671151406.5093162,0,-118.6138916015625,197.54833984375,-59.615234375,1,216.1326904296875,116.572998046875,-246.87158203125,2,255.33154296875,117.829345703125,-209.716064453125,3,86.5482177734375,196.5654296875,134.75,-2.1296161131609224,2.0642422080182827,0.3,-0.3,0.056666666666666664,-0.04555555555555556,-1.5055555555555555,-1.12,3.33,8.62,11.721694624000001
1671151406.5193157,0,-118.70440673828125,197.5185546875,-59.49169921875,1,215.938232421875,116.656005859375,-246.939697265625,2,255.275146484375,117.79345703125,-209.793212890625,3,86.5682373046875,196.573974609375,134.75048828125,-2.1296161131609224,2.0642422080182827,0.3,-0.3,0.056666666666666664,-0.04555555555555556,-1.5055555555555555,-1.12,3.33,8.62,11.721694624000001
1671151406.5293214,0,-118.76702880859375,197.465576171875,-59.372314453125,1,215.8134765625,116.668212890625,-246.98828125,2,255.1373291015625,117.81298828125,-209.8671875,3,86.704833984375,196.649169921875,134.795654296875,-2.1811286400304706,2.109279696594173,27.6,-27.6,0.01,-0.0033333333333333335,-0.11444444444444445,-0.48,1.03,8.79,11.744749376
1671151406.5393388,0,-118.79156494140625,197.485107421875,-59.155517578125,1,215.318603515625,116.658203125,-247.265869140625,2,254.851806640625,117.72900390625,-210.176025390625,3,86.9442138671875,196.536865234375,134.759033203125,-2.1811286400304706,2.109279696594173,27.6,-27.6,0.01,-0.0033333333333333335,-0.11444444444444445,-0.48,1.03,8.79,11.744749376
1671151406.5493152,0,-118.9512939453125,197.557373046875,-58.637939453125,1,214.5394287109375,116.698974609375,-247.851318359375,2,253.9732666015625,117.790771484375,-210.961669921875,3,87.40966796875,196.626953125,134.4443359375,-2.1811286400304706,2.109279696594173,27.6,-27.6,0.01,-0.0033333333333333335,-0.11444444444444445,-0.48,1.03,8.79,11.744749376
1671151406.559337,0,-119.20904541015625,197.4248046875,-57.636474609375,1,213.18994140625,116.81982421875,-248.862060546875,2,252.712646484375,117.87841796875,-212.16845703125,3,88.1944580078125,196.588623046875,134.1865234375,-2.1811286400304706,2.109279696594173,27.6,-27.6,0.01,-0.0033333333333333335,-0.11444444444444445,-0.48,1.03,8.79,11.744749376
1671151406.5693572,0,-119.619873046875,197.376220703125,-56.618408203125,1,211.4459228515625,116.797119140625,-250.186279296875,2,251.1185302734375,117.933349609375,-213.60693359375,3,89.0428466796875,196.643798828125,133.766357421875,-2.1811286400304706,2.109279696594173,27.6,-27.6,0.01,-0.0033333333333333335,-0.11444444444444445,-0.48,1.03,8.79,11.744749376
1671151406.5793235,0,-120.1400146484375,197.4091796875,-55.390625,1,209.206787109375,116.6552734375,-251.753662109375,2,249.4207763671875,117.88720703125,-215.64111328125,3,89.9908447265625,196.556884765625,133.242919921875,-2.1811286400304706,2.109279696594173,27.6,-27.6,0.01,-0.0033333333333333335,-0.11444444444444445,-0.48,1.03,8.79,11.744749376
1671151406.5893412,0,-120.878662109375,197.508056640625,-54.17041015625,1,206.5859375,116.529296875,-253.574462890625,2,247.3525390625,117.710693359375,-217.783935546875,3,91.0126953125,196.498046875,132.490234375,-2.1798336323717393,2.094650906375167,60.5,-29.5,-0.0011111111111111111,0.035555555555555556,0.15666666666666668,0.64,0.35,10.72,11.688759264
1671151406.5993385,0,-121.439697265625,197.4716796875,-53.022216796875,1,204.23974609375,116.61962890625,-255.303955078125,2,245.2569580078125,117.580810546875,-219.9140625,3,92.0230712890625,196.454345703125,131.693115234375,-2.1798336323717393,2.094650906375167,60.5,-29.5,-0.0011111111111111111,0.035555555555555556,0.15666666666666668,0.64,0.35,10.72,11.688759264
1671151406.6093228,0,-122.24688720703125,197.462890625,-51.515625,1,200.9581298828125,116.763916015625,-257.16357421875,2,242.18115234375,117.58349609375,-222.446533203125,3,93.523193359375,196.57373046875,130.924560546875,-2.1798336323717393,2.094650906375167,60.5,-29.5,-0.0011111111111111111,0.035555555555555556,0.15666666666666668,0.64,0.35,10.72,11.688759264
1671151406.6193202,0,-123.09259033203125,197.36376953125,-49.841064453125,1,198.032470703125,116.589599609375,-259.190185546875,2,239.73291015625,117.37353515625,-224.843017578125,3,94.903076171875,196.65185546875,130.249267578125,-2.1004064959695303,2.0215069552801377,60.5,-29.5,-0.2833333333333333,0.027777777777777776,0.8511111111111112,-1.61,2.47,10.14,11.678878656
1671151406.629333,0,-124.15203857421875,197.338623046875,-47.68115234375,1,194.38818359375,116.557373046875,-261.093017578125,2,236.373046875,117.32666015625,-227.479736328125,3,96.2794189453125,196.71142578125,129.544677734375,-2.1004064959695303,2.0215069552801377,60.5,-29.5,-0.2833333333333333,0.027777777777777776,0.8511111111111112,-1.61,2.47,10.14,11.678878656
1671151406.6393337,0,-125.31134033203125,197.040771484375,-45.283203125,1,189.663818359375,116.52880859375,-263.76220703125,2,232.3946533203125,117.486572265625,-230.349365234375,3,97.7408447265625,196.49658203125,128.80859375,-2.1004064959695303,2.0215069552801377,60.5,-29.5,-0.2833333333333333,0.027777777777777776,0.8511111111111112,-1.61,2.47,10.14,11.678878656
1671151406.6493604,0,-126.375732421875,196.9462890625,-42.5234375,1,185.5767822265625,116.378173828125,-265.698486328125,2,228.83740234375,117.5166015625,-232.91259765625,3,98.906982421875,196.32421875,128.196533203125,-2.1004064959695303,2.0215069552801377,60.5,-29.5,-0.2833333333333333,0.027777777777777776,0.8511111111111112,-1.61,2.47,10.14,11.678878656
1671151406.6593308,0,-127.74383544921875,196.67919921875,-39.1376953125,1,180.6207275390625,116.370849609375,-267.898193359375,2,224.1016845703125,117.145263671875,-235.802490234375,3,100.2166748046875,196.20458984375,127.517333984375,-2.1004064959695303,2.0215069552801377,60.5,-29.5,-0.2833333333333333,0.027777777777777776,0.8511111111111112,-1.61,2.47,10.14,11.678878656
1671151406.6693158,0,-128.86138916015625,196.55029296875,-36.165283203125,1,176.192626953125,116.906494140625,-269.53271484375,2,219.848388671875,116.584716796875,-238.251220703125,3,101.6246337890625,196.091796875,126.889892578125,-1.9484589306783475,1.9264917637265286,53.7,-36.3,-0.013333333333333334,0.21333333333333335,1.3644444444444443,-0.12,1.15,9.44,11.705226944
1671151406.6793156,0,-130.2681884765625,196.513671875,-32.734619140625,1,171.1055908203125,116.654296875,-271.139404296875,2,215.0645751953125,116.75927734375,-240.953369140625,3,102.9146728515625,196.035400390625,126.241455078125,-1.9484589306783475,1.9264917637265286,53.7,-36.3,-0.013333333333333334,0.21333333333333335,1.3644444444444443,-0.12,1.15,9.44,11.705226944
1671151406.689329,0,-131.68304443359375,196.432373046875,-29.343994140625,1,165.5184326171875,116.557373046875,-272.796630859375,2,209.6400146484375,117.052734375,-243.146240234375,3,104.266845703125,196.000732421875,125.575927734375,-1.9484589306783475,1.9264917637265286,53.7,-36.3,-0.013333333333333334,0.21333333333333335,1.3644444444444443,-0.12,1.15,9.44,11.705226944
1671151406.6993253,0,-133.0684814453125,196.496337890625,-26.640625,1,160.7550048828125,116.44677734375,-274.24365234375,2,205.1048583984375,116.834716796875,-246.02587890625,3,105.2838134765625,195.9658203125,124.923583984375,-1.9484589306783475,1.9264917637265286,53.7,-36.3,-0.013333333333333334,0.21333333333333335,1.3644444444444443,-0.12,1.15,9.44,11.705226944
1671151406.7093253,0,-134.56231689453125,196.3046875,-23.4873046875,1,154.8665771484375,116.49609375,-275.712646484375,2,199.3255615234375,116.741455078125,-248.6787109375,3,106.521728515625,195.8291015625,124.169921875,-1.9484589306783475,1.9264917637265286,53.7,-36.3,-0.013333333333333334,0.21333333333333335,1.3644444444444443,-0.12,1.15,9.44,11.705226944
1671151406.7193227,0,-135.410400390625,196.5517578125,-20.614990234375,1,150.1363525390625,116.5224609375,-277.023193359375,2,195.1954345703125,116.662841796875,-250.87939453125,3,107.880859375,196.0068359375,123.35986328125,-1.7244226057177685,1.8178070468863077,51.5,-38.5,-0.058888888888888886,0.06111111111111111,1.7255555555555555,-0.67,1.83,9.18,11.718401088
1671151406.729319,0,-136.3563232421875,196.5517578125,-17.294921875,1,144.6658935546875,116.304931640625,-278.388916015625,2,190.235107421875,116.74267578125,-252.806640625,3,109.1815185546875,196.058837890625,122.56689453125,-1.7244226057177685,1.8178070468863077,51.5,-38.5,-0.058888888888888886,0.06111111111111111,1.7255555555555555,-0.67,1.83,9.18,11.718401088
1671151406.7393513,0,-137.083251953125,196.525390625,-14.222900390625,1,139.57373046875,116.3037109375,-279.547119140625,2,185.802734375,116.935546875,-254.650146484375,3,110.4405517578125,196.072021484375,121.68798828125,-1.7244226057177685,1.8178070468863077,51.5,-38.5,-0.058888888888888886,0.06111111111111111,1.7255555555555555,-0.67,1.83,9.18,11.718401088
1671151406.7493696,0,-137.93011474609375,196.7138671875,-10.921142578125,1,134.4560546875,116.09033203125,-281.334228515625,2,180.418212890625,117.240478515625,-256.916259765625,3,111.7677001953125,196.083740234375,120.467041015625,-1.7244226057177685,1.8178070468863077,51.5,-38.5,-0.058888888888888886,0.06111111111111111,1.7255555555555555,-0.67,1.83,9.18,11.718401088
1671151406.7593348,0,-138.67388916015625,196.828369140625,-7.62841796875,1,128.5389404296875,116.205322265625,-282.61083984375,2,175.7266845703125,117.15673828125,-259.18310546875,3,113.1851806640625,196.1337890625,119.236572265625,-1.7244226057177685,1.8178070468863077,51.5,-38.5,-0.058888888888888886,0.06111111111111111,1.7255555555555555,-0.67,1.83,9.18,11.718401088
1671151406.7693186,0,-139.1959228515625,196.730224609375,-4.676025390625,1,123.837890625,116.2099609375,-283.9560546875,2,171.169677734375,116.947021484375,-261.463623046875,3,114.5941162109375,196.16162109375,118.120361328125,-1.5213941827766144,1.6919035245096175,51.5,-38.5,-0.025555555555555557,-0.03777777777777778,1.7133333333333334,-2.0,1.76,9.94,11.728281696
1671151406.7793171,0,-140.05548095703125,196.53857421875,-1.61669921875,1,118.063232421875,115.94873046875,-285.3837890625,2,165.9876708984375,116.686279296875,-263.755126953125,3,116.0859375,196.21044921875,116.752685546875,-1.5213941827766144,1.6919035245096175,51.5,-38.5,-0.025555555555555557,-0.03777777777777778,1.7133333333333334,-2.0,1.76,9.94,11.728281696
1671151406.789348,0,-140.53973388671875,196.57666015625,1.247802734375,1,113.511474609375,116.139892578125,-286.518798828125,2,161.540771484375,116.63525390625,-265.587890625,3,117.217041015625,196.290771484375,115.57275390625,-1.5213941827766144,1.6919035245096175,51.5,-38.5,-0.025555555555555557,-0.03777777777777778,1.7133333333333334,-2.0,1.76,9.94,11.728281696
1671151406.7993689,0,-140.84808349609375,196.77294921875,4.1474609375,1,108.4239501953125,116.146484375,-287.881591796875,2,157.0181884765625,117.060791015625,-267.77392578125,3,118.59375,196.213134765625,114.133544921875,-1.5213941827766144,1.6919035245096175,51.5,-38.5,-0.025555555555555557,-0.03777777777777778,1.7133333333333334,-2.0,1.76,9.94,11.728281696
1671151406.8093734,0,-141.596923828125,196.655517578125,6.885986328125,1,103.156005859375,116.0634765625,-288.877685546875,2,152.3826904296875,117.215576171875,-269.398193359375,3,119.9398193359375,196.227783203125,112.775634765625,-1.5213941827766144,1.6919035245096175,51.5,-38.5,-0.025555555555555557,-0.03777777777777778,1.7133333333333334,-2.0,1.76,9.94,11.728281696
1671151406.8193748,0,-141.83648681640625,196.610595703125,9.374755859375,1,98.143310546875,115.9677734375,-290.123046875,2,148.21240234375,117.123291015625,-271.1083984375,3,121.0164794921875,196.3037109375,111.513671875,-1.3133296189403927,1.5550643819036378,50.8,-39.2,-0.01888888888888889,-0.02,1.7544444444444445,-2.45,1.95,10.15,11.698639872000001
1671151406.8294024,0,-142.27752685546875,196.80419921875,12.10546875,1,92.760009765625,115.8203125,-291.4541015625,2,143.2430419921875,117.127197265625,-272.95263671875,3,122.5924072265625,196.34765625,110.007080078125,-1.3133296189403927,1.5550643819036378,50.8,-39.2,-0.01888888888888889,-0.02,1.7544444444444445,-2.45,1.95,10.15,11.698639872000001
1671151406.8395162,0,-142.57757568359375,196.846923828125,14.99267578125,1,87.4012451171875,115.921142578125,-292.578857421875,2,138.2852783203125,117.107421875,-274.822265625,3,123.8797607421875,196.396484375,108.292236328125,-1.3133296189403927,1.5550643819036378,50.8,-39.2,-0.01888888888888889,-0.02,1.7544444444444445,-2.45,1.95,10.15,11.698639872000001
1671151406.849374,0,-142.99285888671875,196.4501953125,17.733154296875,1,82.1695556640625,115.829345703125,-293.286865234375,2,133.704833984375,116.14306640625,-275.333251953125,3,125.0135498046875,196.28076171875,106.895263671875,-1.3133296189403927,1.5550643819036378,50.8,-39.2,-0.01888888888888889,-0.02,1.7544444444444445,-2.45,1.95,10.15,11.698639872000001
1671151406.8593402,0,-143.229248046875,196.426025390625,20.86474609375,1,76.3206787109375,115.720947265625,-294.013671875,2,128.082275390625,116.142333984375,-277.38232421875,3,126.2257080078125,196.35986328125,105.327880859375,-1.3133296189403927,1.5550643819036378,50.8,-39.2,-0.01888888888888889,-0.02,1.7544444444444445,-2.45,1.95,10.15,11.698639872000001
1671151406.8693197,0,-143.0247802734375,196.4296875,23.688720703125,1,71.73876953125,115.9130859375,-294.865478515625,2,123.2041015625,116.40283203125,-279.135498046875,3,127.365966796875,196.2548828125,103.92529296875,-1.3133296189403927,1.5550643819036378,50.8,-39.2,-0.01888888888888889,-0.02,1.7544444444444445,-2.45,1.95,10.15,11.698639872000001
1671151406.879325,0,-143.09490966796875,196.33251953125,26.990966796875,1,66.39599609375,115.801513671875,-295.53515625,2,118.286865234375,116.96435546875,-280.663818359375,3,128.5892333984375,196.213623046875,102.52587890625,-1.1072315482155783,1.4152035547606174,45.5,-44.5,-0.03777777777777778,-0.04,1.6444444444444444,-0.2,1.59,8.39,11.711814016
1671151406.8893182,0,-143.01556396484375,196.22216796875,30.181884765625,1,60.83203125,115.930419921875,-296.05078125,2,113.08349609375,117.34521484375,-282.23486328125,3,129.5654296875,196.18994140625,101.01123046875,-1.1072315482155783,1.4152035547606174,45.5,-44.5,-0.03777777777777778,-0.04,1.6444444444444444,-0.2,1.59,8.39,11.711814016
1671151406.8993585,0,-143.005615234375,196.2470703125,32.949462890625,1,55.8416748046875,115.750732421875,-296.18505859375,2,108.0389404296875,117.366455078125,-283.58154296875,3,130.578369140625,196.083740234375,99.469482421875,-1.1072315482155783,1.4152035547606174,45.5,-44.5,-0.03777777777777778,-0.04,1.6444444444444444,-0.2,1.59,8.39,11.711814016
1671151406.9093804,0,-143.1077880859375,196.178466796875,35.97119140625,1,49.9525146484375,116.205810546875,-296.6865234375,2,102.039306640625,117.124755859375,-285.02587890625,3,131.7784423828125,196.07666015625,97.830078125,-1.1072315482155783,1.4152035547606174,45.5,-44.5,-0.03777777777777778,-0.04,1.6444444444444444,-0.2,1.59,8.39,11.711814016
1671151406.9193764,0,-142.97735595703125,196.073974609375,38.691650390625,1,44.870361328125,116.4892578125,-296.97314453125,2,97.0577392578125,117.271240234375,-286.340087890625,3,132.9185791015625,196.1279296875,96.1025390625,-0.905162390206818,1.2692993585435157,45.0,-45.0,-0.04,0.04666666666666667,1.6933333333333334,-0.55,1.89,10.96,11.70852048
1671151406.929414,0,-142.8057861328125,195.940185546875,41.582763671875,1,39.00634765625,116.190185546875,-297.298583984375,2,91.917724609375,117.2236328125,-287.666748046875,3,134.1229248046875,196.12890625,93.98779296875,-0.905162390206818,1.2692993585435157,45.0,-45.0,-0.04,0.04666666666666667,1.6933333333333334,-0.55,1.89,10.96,11.70852048
1671151406.9394307,0,-142.876953125,195.595703125,44.42626953125,1,32.96337890625,116.03271484375,-297.744140625,2,85.672119140625,117.301513671875,-289.0,3,135.310302734375,196.1865234375,91.752197265625,-0.905162390206818,1.2692993585435157,45.0,-45.0,-0.04,0.04666666666666667,1.6933333333333334,-0.55,1.89,10.96,11.70852048
1671151406.9493742,0,-142.8154296875,195.3955078125,47.30517578125,1,28.2269287109375,116.53076171875,-298.27783203125,2,80.7518310546875,117.427490234375,-290.17919921875,3,136.35498046875,196.18701171875,89.79541015625,-0.905162390206818,1.2692993585435157,45.0,-45.0,-0.04,0.04666666666666667,1.6933333333333334,-0.55,1.89,10.96,11.70852048
1671151406.9593735,0,-142.41064453125,195.37109375,50.130859375,1,22.7099609375,116.84912109375,-298.69287109375,2,75.20849609375,117.65869140625,-291.407470703125,3,137.4808349609375,196.23583984375,87.602783203125,-0.905162390206818,1.2692993585435157,45.0,-45.0,-0.04,0.04666666666666667,1.6933333333333334,-0.55,1.89,10.96,11.70852048
1671151406.9693613,0,-141.86639404296875,195.494140625,52.450927734375,1,17.739013671875,116.980712890625,-298.572265625,2,70.443115234375,117.880615234375,-292.21435546875,3,138.527587890625,196.265625,85.847900390625,-0.7177699856636832,1.1053130183507907,45.0,-45.0,-0.035555555555555556,-0.052222222222222225,1.8255555555555556,-0.72,2.22,9.46,11.721694624000001
1671151406.979319,0,-141.2496337890625,195.584228515625,55.1005859375,1,12.1185302734375,116.68701171875,-298.023681640625,2,65.3570556640625,117.814208984375,-293.257080078125,3,139.4166259765625,196.197265625,83.770263671875,-0.7177699856636832,1.1053130183507907,45.0,-45.0,-0.035555555555555556,-0.052222222222222225,1.8255555555555556,-0.72,2.22,9.46,11.721694624000001
1671151406.989318,0,-140.85687255859375,195.689453125,57.6865234375,1,6.4957275390625,116.278076171875,-297.952880859375,2,59.8468017578125,117.84326171875,-294.093017578125,3,140.1468505859375,196.188720703125,81.720458984375,-0.7177699856636832,1.1053130183507907,45.0,-45.0,-0.035555555555555556,-0.052222222222222225,1.8255555555555556,-0.72,2.22,9.46,11.721694624000001
1671151406.9993227,0,-140.43109130859375,195.47265625,60.17333984375,1,1.528076171875,116.307861328125,-297.92724609375,2,54.92041015625,117.868408203125,-294.864501953125,3,140.840576171875,196.09375,79.75439453125,-0.7177699856636832,1.1053130183507907,45.0,-45.0,-0.035555555555555556,-0.052222222222222225,1.8255555555555556,-0.72,2.22,9.46,11.721694624000001
1671151407.0093539,0,-139.9527587890625,195.453857421875,62.724609375,1,-3.9134521484375,116.38330078125,-297.75,2,49.6234130859375,117.89306640625,-295.7099609375,3,141.6871337890625,196.056884765625,77.409912109375,-0.7177699856636832,1.1053130183507907,45.0,-45.0,-0.035555555555555556,-0.052222222222222225,1.8255555555555556,-0.72,2.22,9.46,11.721694624000001
1671151407.0194175,0,-139.50921630859375,195.32861328125,64.958984375,1,-8.9024658203125,116.533203125,-297.503662109375,2,45.183349609375,118.165771484375,-296.3740234375,3,142.4085693359375,196.3720703125,75.348388671875,-0.5436634004342031,0.9529337838400307,45.0,-45.0,-0.07666666666666666,0.04777777777777778,1.4288888888888889,-1.08,0.59,11.2,11.751336448
1671151407.0293694,0,-138.68511962890625,195.50537109375,67.3076171875,1,-14.73046875,116.930419921875,-297.30126953125,2,39.900146484375,117.982177734375,-297.034912109375,3,143.0140380859375,196.58447265625,73.022216796875,-0.5436634004342031,0.9529337838400307,45.0,-45.0,-0.07666666666666666,0.04777777777777778,1.4288888888888889,-1.08,0.59,11.2,11.751336448
1671151407.0393193,0,-138.237060546875,195.1513671875,69.874267578125,1,-20.13983154296875,116.79638671875,-296.80224609375,2,34.828857421875,118.122314453125,-297.63818359375,3,143.6971435546875,196.816162109375,70.634521484375,-0.5436634004342031,0.9529337838400307,45.0,-45.0,-0.07666666666666666,0.04777777777777778,1.4288888888888889,-1.08,0.59,11.2,11.751336448
1671151407.0493557,0,-137.68048095703125,194.961669921875,72.064453125,1,-24.4534912109375,116.62890625,-296.506103515625,2,29.7337646484375,118.2216796875,-297.95068359375,3,144.3255615234375,196.742431640625,68.5322265625,-0.5436634004342031,0.9529337838400307,45.0,-45.0,-0.07666666666666666,0.04777777777777778,1.4288888888888889,-1.08,0.59,11.2,11.751336448
1671151407.0593808,0,-136.81298828125,195.03369140625,74.361572265625,1,-29.83758544921875,116.441162109375,-296.033203125,2,24.25732421875,117.825927734375,-298.241943359375,3,144.7491455078125,196.707763671875,66.13671875,-0.5436634004342031,0.9529337838400307,45.0,-45.0,-0.07666666666666666,0.04777777777777778,1.4288888888888889,-1.08,0.59,11.2,11.751336448
1671151407.0694115,0,-135.92572021484375,195.272705078125,76.300048828125,1,-34.5115966796875,116.364013671875,-295.545654296875,2,19.167236328125,117.60693359375,-298.42041015625,3,145.4703369140625,196.43310546875,64.005859375,-0.3606836145800801,0.7734553149891451,45.0,-45.0,-0.051111111111111114,-0.03888888888888889,1.69,0.32,1.71,8.35,11.701933408
1671151407.0793886,0,-134.92254638671875,195.523681640625,78.527587890625,1,-39.74969482421875,116.140869140625,-294.82568359375,2,13.66845703125,117.635009765625,-298.558837890625,3,146.2529296875,196.268798828125,61.566162109375,-0.3606836145800801,0.7734553149891451,45.0,-45.0,-0.051111111111111114,-0.03888888888888889,1.69,0.32,1.71,8.35,11.701933408
1671151407.0894902,0,-133.98333740234375,195.59814453125,80.74853515625,1,-45.02825927734375,116.078125,-294.1123046875,2,8.3780517578125,117.565673828125,-298.681884765625,3,146.9541015625,196.02294921875,59.187255859375,-0.3606836145800801,0.7734553149891451,45.0,-45.0,-0.051111111111111114,-0.03888888888888889,1.69,0.32,1.71,8.35,11.701933408
1671151407.0993745,0,-133.17254638671875,195.810791015625,82.7294921875,1,-49.83843994140625,116.05712890625,-293.371337890625,2,3.306640625,117.686767578125,-298.364501953125,3,147.498291015625,195.96826171875,56.91748046875,-0.3606836145800801,0.7734553149891451,45.0,-45.0,-0.051111111111111114,-0.03888888888888889,1.69,0.32,1.71,8.35,11.701933408
1671151407.1093795,0,-132.3538818359375,195.732177734375,85.065185546875,1,-55.0972900390625,116.0029296875,-292.358154296875,2,-2.7369384765625,117.79638671875,-298.28515625,3,147.6651611328125,196.051513671875,54.505859375,-0.3606836145800801,0.7734553149891451,45.0,-45.0,-0.051111111111111114,-0.03888888888888889,1.69,0.32,1.71,8.35,11.701933408
1671151407.1194105,0,-131.4051513671875,195.40966796875,87.3017578125,1,-59.81689453125,115.654296875,-291.035400390625,2,-7.816162109375,112.744873046875,-294.484619140625,3,147.8367919921875,196.484130859375,52.357666015625,-0.17516177665511337,0.5906673821215008,45.0,-45.0,-0.05333333333333334,-0.027777777777777776,1.6655555555555555,-1.13,1.56,11.1,11.711814016
1671151407.1293943,0,-130.3299560546875,195.362060546875,89.80908203125,1,-65.18756103515625,115.674072265625,-289.3984375,2,-13.90869140625,112.630615234375,-293.7265625,3,148.10546875,196.693359375,49.962646484375,-0.17516177665511337,0.5906673821215008,45.0,-45.0,-0.05333333333333334,-0.027777777777777776,1.6655555555555555,-1.13,1.56,11.1,11.711814016
1671151407.1394005,0,-129.28125,195.469970703125,91.89892578125,1,-69.94976806640625,115.591552734375,-288.14453125,2,-18.1837158203125,117.200927734375,-296.679443359375,3,148.509033203125,196.587890625,47.8310546875,-0.17516177665511337,0.5906673821215008,45.0,-45.0,-0.05333333333333334,-0.027777777777777776,1.6655555555555555,-1.13,1.56,11.1,11.711814016
1671151407.1493769,0,-128.19366455078125,195.421630859375,94.214599609375,1,-75.32861328125,115.560791015625,-286.80810546875,2,-23.27587890625,117.510986328125,-296.419189453125,3,148.988037109375,196.526123046875,45.23828125,-0.17516177665511337,0.5906673821215008,45.0,-45.0,-0.05333333333333334,-0.027777777777777776,1.6655555555555555,-1.13,1.56,11.1,11.711814016
1671151407.1593375,0,-127.16693115234375,195.549072265625,96.404052734375,1,-80.441162109375,115.549560546875,-285.365234375,2,-28.2620849609375,117.336669921875,-296.019287109375,3,149.4957275390625,196.35498046875,42.74658203125,-0.17516177665511337,0.5906673821215008,45.0,-45.0,-0.05333333333333334,-0.027777777777777776,1.6655555555555555,-1.13,1.56,11.1,11.711814016
1671151407.1693192,0,-125.971923828125,195.347900390625,98.42333984375,1,-85.1820068359375,115.542236328125,-284.047119140625,2,-32.94512939453125,117.399658203125,-295.6640625,3,149.9842529296875,196.06640625,40.609375,0.0030216845370405645,0.4325325580163779,45.0,-45.0,0.01,-0.0011111111111111111,1.721111111111111,-1.44,2.39,9.74,11.688759264
1671151407.1793401,0,-124.92608642578125,195.415283203125,100.684814453125,1,-90.3948974609375,115.44482421875,-282.349365234375,2,-38.281982421875,116.873046875,-294.583251953125,3,150.189208984375,195.881591796875,38.166015625,0.0030216845370405645,0.4325325580163779,45.0,-45.0,0.01,-0.0011111111111111111,1.721111111111111,-1.44,2.39,9.74,11.688759264
1671151407.1893244,0,-123.6199951171875,195.320068359375,102.8564453125,1,-95.69873046875,115.329833984375,-280.6845703125,2,-43.974609375,116.50048828125,-293.678955078125,3,150.3564453125,195.714111328125,35.711181640625,0.0030216845370405645,0.4325325580163779,45.0,-45.0,0.01,-0.0011111111111111111,1.721111111111111,-1.44,2.39,9.74,11.688759264
1671151407.1993544,0,-122.29571533203125,195.27685546875,104.927734375,1,-100.25885009765625,115.445068359375,-278.9248046875,2,-48.6943359375,116.70849609375,-292.866943359375,3,150.566650390625,195.78955078125,33.42529296875,0.0030216845370405645,0.4325325580163779,45.0,-45.0,0.01,-0.0011111111111111111,1.721111111111111,-1.44,2.39,9.74,11.688759264
1671151407.209356,0,-121.04864501953125,195.337158203125,107.087890625,1,-105.4136962890625,115.5693359375,-277.06689453125,2,-54.01300048828125,116.974609375,-292.056884765625,3,150.59765625,195.96142578125,30.9287109375,0.0030216845370405645,0.4325325580163779,45.0,-45.0,0.01,-0.0011111111111111111,1.721111111111111,-1.44,2.39,9.74,11.688759264
1671151407.2194114,0,-119.76470947265625,195.387939453125,108.98974609375,1,-109.96435546875,115.533935546875,-275.363037109375,2,-58.789306640625,117.024658203125,-291.1396484375,3,150.7469482421875,196.12255859375,28.673828125,0.1777997552191964,0.25972098044562947,45.0,-45.0,-0.04666666666666667,-0.2511111111111111,1.7177777777777778,-0.67,2.1,9.8,11.721694624000001
1671151407.2293863,0,-118.298828125,195.1953125,111.311279296875,1,-115.0643310546875,115.437744140625,-273.26513671875,2,-64.0806884765625,116.736572265625,-289.669921875,3,150.891357421875,195.96142578125,26.26416015625,0.1777997552191964,0.25972098044562947,45.0,-45.0,-0.04666666666666667,-0.2511111111111111,1.7177777777777778,-0.67,2.1,9.8,11.721694624000001
1671151407.2394729,0,-116.97357177734375,195.017333984375,113.391357421875,1,-120.07330322265625,115.590576171875,-271.05517578125,2,-69.5054931640625,116.693115234375,-288.20703125,3,150.8818359375,195.84423828125,23.84814453125,0.1777997552191964,0.25972098044562947,45.0,-45.0,-0.04666666666666667,-0.2511111111111111,1.7177777777777778,-0.67,2.1,9.8,11.721694624000001
1671151407.2493694,0,-115.61944580078125,194.966064453125,115.3994140625,1,-124.6407470703125,115.6103515625,-268.908447265625,2,-74.27496337890625,116.754638671875,-286.86962890625,3,150.6109619140625,195.8154296875,21.702880859375,0.1777997552191964,0.25972098044562947,45.0,-45.0,-0.04666666666666667,-0.2511111111111111,1.7177777777777778,-0.67,2.1,9.8,11.721694624000001
1671151407.259347,0,-114.10186767578125,194.865966796875,117.52197265625,1,-129.6339111328125,115.634765625,-266.656494140625,2,-79.6318359375,116.764404296875,-285.466552734375,3,150.477783203125,195.621826171875,19.358154296875,0.1777997552191964,0.25972098044562947,45.0,-45.0,-0.04666666666666667,-0.2511111111111111,1.7177777777777778,-0.67,2.1,9.8,11.721694624000001
1671151407.269359,0,-112.62738037109375,194.874755859375,119.39501953125,1,-134.03338623046875,115.5361328125,-264.455078125,2,-84.3134765625,116.651123046875,-283.993408203125,3,150.450927734375,195.56689453125,17.2158203125,0.1777997552191964,0.25972098044562947,45.0,-45.0,-0.04666666666666667,-0.2511111111111111,1.7177777777777778,-0.67,2.1,9.8,11.721694624000001
1671151407.2793906,0,-110.85113525390625,195.01513671875,121.44482421875,1,-138.83154296875,115.466796875,-261.9130859375,2,-89.65362548828125,116.594970703125,-282.297607421875,3,150.4503173828125,195.52978515625,14.55419921875,0.3645206743096554,0.06532594189601981,45.0,-45.0,-0.03666666666666667,-0.013333333333333334,1.7077777777777778,1.62,1.84,8.91,11.711814016
