Time,Marker0_ID,Marker0_x,Marker0_y,Marker0_z,Marker1_ID,Marker1_x,Marker1_y,Marker1_z,Marker2_ID,Marker2_x,Marker2_y,Marker2_z,Marker3_ID,Marker3_x,Marker3_y,Marker3_z,thetaR,thetaL,dutyR,dutyL,wx,wy,wz,ax,ay,az,Vbatt
1671151183.60475,0,0,0,0,0,0,0,0,0,0,0,0,0,0,0,0,0,0,0,0,0,0,0,0,0,0,0
1671151183.614843,0,-114.326171875,196.335693359375,99.351318359375,1,-29.6395263671875,116.15576171875,-276.548095703125,2,23.581298828125,117.609130859375,-281.720947265625,3,166.4635009765625,196.097900390625,74.609130859375,0,0,0,0,0,0,0,0,0,0,0
1671151183.6248126,0,-114.41900634765625,196.403564453125,99.374755859375,1,-29.55126953125,116.13916015625,-276.5703125,2,23.575439453125,117.62890625,-281.68603515625,3,166.41796875,196.051513671875,74.56591796875,0,0,0,0,0,0,0,0,0,0,0
1671151183.6348217,0,-114.40380859375,196.381591796875,99.370361328125,1,-29.58349609375,116.10791015625,-276.558349609375,2,23.5672607421875,117.590576171875,-281.7275390625,3,166.3955078125,196.052978515625,74.547119140625,0,0,0,0,0,0,0,0,0,0,0
1671151183.6448417,0,-114.3944091796875,196.34375,99.35791015625,1,-29.60595703125,116.15771484375,-276.5556640625,2,23.565673828125,117.64990234375,-281.742431640625,3,166.4073486328125,196.120361328125,74.5927734375,0,0,0,0,0,0,0,0,0,0,0
1671151183.6549463,0,-114.33172607421875,196.392822265625,99.36865234375,1,-29.63482666015625,116.16259765625,-276.512939453125,2,23.5029296875,117.66064453125,-281.738037109375,3,166.4296875,196.100341796875,74.62939453125,0,0,0,0,0,0,0,0,0,0,0
1671151183.6648188,0,-114.3572998046875,196.361572265625,99.337890625,1,-29.59893798828125,116.11376953125,-276.5185546875,2,23.5560302734375,117.600830078125,-281.748779296875,3,166.444091796875,196.128173828125,74.615966796875,0,0,0,0,0,0,0,0,0,0,0
1671151183.6748095,0,-114.39532470703125,196.36669921875,99.37548828125,1,-29.521240234375,116.088623046875,-276.5458984375,2,23.5743408203125,117.59814453125,-281.730712890625,3,166.388427734375,196.060546875,74.5302734375,0,0,0,0,0,0,0,0,0,0,0
1671151183.684821,0,-114.4173583984375,196.359375,99.364013671875,1,-29.5634765625,116.142578125,-276.5751953125,2,23.544189453125,117.577392578125,-281.7158203125,3,166.40478515625,196.05078125,74.56591796875,0,0,0,0,0,0,0,0,0,0,0
1671151183.694789,0,-114.39337158203125,196.377685546875,99.3515625,1,-29.60614013671875,116.1240234375,-276.516357421875,2,23.5572509765625,117.6142578125,-281.72216796875,3,166.399169921875,196.0556640625,74.52294921875,0,0,0,0,0,0,0,0,0,0,0
1671151183.704889,0,-114.38092041015625,196.3759765625,99.35986328125,1,-29.5638427734375,116.122802734375,-276.577392578125,2,23.5782470703125,117.6474609375,-281.70263671875,3,166.4232177734375,196.077392578125,74.57958984375,0,0,0,0,0,0,0,0,0,0,0
1671151183.7147894,0,-114.3804931640625,196.330810546875,99.351806640625,1,-29.6241455078125,116.113037109375,-276.544677734375,2,23.571044921875,117.5986328125,-281.71484375,3,166.446533203125,196.084228515625,74.60498046875,0,0,0,0,0,0,0,0,0,0,0
1671151183.7248106,0,-114.3631591796875,196.329345703125,99.35888671875,1,-29.5665283203125,116.151611328125,-276.5703125,2,23.54345703125,117.6474609375,-281.7392578125,3,166.4093017578125,196.0576171875,74.550048828125,0,0,0,0,0,0,0,0,0,0,0
1671151183.734813,0,-114.3701171875,196.329833984375,99.37255859375,1,-29.5484619140625,116.11572265625,-276.58349609375,2,23.5523681640625,117.60693359375,-281.70751953125,3,166.39697265625,196.0625,74.54541015625,0,0,0,0,0,0,0,0,0,0,0
1671151183.7448556,0,-114.41253662109375,196.387939453125,99.386962890625,1,-29.5963134765625,116.128662109375,-276.528076171875,2,23.565673828125,117.610595703125,-281.72607421875,3,166.41650390625,196.044921875,74.55224609375,0,0,0,0,0,0,0,0,0,0,0
1671151183.754943,0,-114.39312744140625,196.35791015625,99.38037109375,1,-29.59686279296875,116.150146484375,-276.541259765625,2,23.5657958984375,117.627685546875,-281.71435546875,3,166.432861328125,196.0927734375,74.579833984375,0,0,0,0,0,0,0,0,0,0,0
1671151183.764811,0,-114.39373779296875,196.378173828125,99.327392578125,1,-29.603759765625,116.12109375,-276.543701171875,2,23.5535888671875,117.629150390625,-281.755126953125,3,166.44287109375,196.10693359375,74.588134765625,0,0,0,0,0,0,0,0,0,0,0
1671151183.7748306,0,-114.4056396484375,196.336669921875,99.379638671875,1,-29.5780029296875,116.1376953125,-276.548583984375,2,23.5472412109375,117.6044921875,-281.751708984375,3,166.3995361328125,196.052978515625,74.54443359375,0,0,0,0,0,0,0,0,0,0,0
1671151183.7848237,0,-114.38775634765625,196.332275390625,99.367919921875,1,-29.5860595703125,116.139892578125,-276.55126953125,2,23.554443359375,117.60986328125,-281.740966796875,3,166.3836669921875,196.07373046875,74.54296875,0,0,0,0,0,0,0,0,0,0,0
1671151183.7948394,0,-114.3623046875,196.318603515625,99.385009765625,1,-29.6328125,116.1171875,-276.565185546875,2,23.556884765625,117.587158203125,-281.721435546875,3,166.41796875,196.0458984375,74.554931640625,0,0,0,0,0,0,0,0,0,0,0
1671151183.8048344,0,-114.3970947265625,196.34521484375,99.36669921875,1,-29.57904052734375,116.136474609375,-276.56201171875,2,23.5653076171875,117.6044921875,-281.7119140625,3,166.4659423828125,196.12548828125,74.6298828125,0,0,0,0,0,0,0,0,0,0,0
1671151183.8147898,0,-114.4049072265625,196.32763671875,99.346923828125,1,-29.6148681640625,116.122314453125,-276.51220703125,2,23.55908203125,117.610595703125,-281.73095703125,3,166.443603515625,196.076416015625,74.619384765625,0,0,0,0,0,0,0,0,0,0,0
1671151183.8248959,0,-114.4013671875,196.361328125,99.37255859375,1,-29.60205078125,116.150146484375,-276.551025390625,2,23.56787109375,117.6171875,-281.7197265625,3,166.4200439453125,196.04541015625,74.531982421875,0,0,0,0,0,0,0,0,0,0,0
1671151183.8347867,0,-114.4112548828125,196.337158203125,99.364990234375,1,-29.59515380859375,116.16943359375,-276.546142578125,2,23.567138671875,117.63232421875,-281.753173828125,3,166.43212890625,196.082275390625,74.5556640625,0,0,0,0,0,0,0,0,0,0,0
1671151183.8448057,0,-114.46295166015625,196.278564453125,99.36181640625,1,-29.55859375,116.1025390625,-276.523681640625,2,23.561279296875,117.630615234375,-281.709716796875,3,166.4176025390625,196.08447265625,74.570556640625,0,0,0,0,0,0,0,0,0,0,0
1671151183.8549333,0,-114.4403076171875,196.327880859375,99.397216796875,1,-29.5645751953125,116.12451171875,-276.5439453125,2,23.550048828125,117.6611328125,-281.719970703125,3,166.4718017578125,196.100341796875,74.59716796875,0,0,0,0,0,0,0,0,0,0,0
1671151183.8647892,0,-114.4268798828125,196.306884765625,99.35595703125,1,-29.60546875,116.08349609375,-276.51318359375,2,23.5458984375,117.62353515625,-281.74169921875,3,166.45751953125,196.105712890625,74.5888671875,0,0,0,0,0,0,0,0,0,0,0
1671151183.8748236,0,-114.4024658203125,196.3388671875,99.351806640625,1,-29.4857177734375,116.091064453125,-276.58544921875,2,23.5550537109375,117.6298828125,-281.71240234375,3,166.4183349609375,196.05615234375,74.548828125,0,0,0,0,0,0,0,0,0,0,0
1671151183.884809,0,-114.3929443359375,196.337158203125,99.3623046875,1,-29.5191650390625,116.114013671875,-276.5732421875,2,23.56640625,117.5859375,-281.719482421875,3,166.423583984375,196.07275390625,74.535888671875,0,0,0,0,0,0,0,0,0,0,0
1671151183.8948085,0,-114.396484375,196.349853515625,99.3505859375,1,-29.57293701171875,116.08740234375,-276.51708984375,2,23.60205078125,117.63916015625,-281.6953125,3,166.455810546875,196.089111328125,74.59619140625,0,0,0,0,0,0,0,0,0,0,0
1671151183.9048364,0,-114.38043212890625,196.322998046875,99.349365234375,1,-29.566162109375,116.1025390625,-276.539306640625,2,23.551025390625,117.64599609375,-281.75,3,166.43212890625,196.0693359375,74.597900390625,0,0,0,0,0,0,0,0,0,0,0
1671151183.9147923,0,-114.40478515625,196.286376953125,99.368896484375,1,-29.64031982421875,116.164306640625,-276.521484375,2,23.543212890625,117.6513671875,-281.775634765625,3,166.432373046875,196.0751953125,74.572265625,0,0,0,0,0,0,0,0,0,0,0
1671151183.9248097,0,-114.41583251953125,196.33056640625,99.390869140625,1,-29.537353515625,116.111083984375,-276.530517578125,2,23.5458984375,117.6005859375,-281.727783203125,3,166.403076171875,196.03759765625,74.5322265625,0,0,0,0,0,0,0,0,0,0,0
1671151183.9348147,0,-114.4415283203125,196.359130859375,99.383056640625,1,-29.4822998046875,116.085693359375,-276.571533203125,2,23.5623779296875,117.60693359375,-281.741455078125,3,166.4012451171875,196.042236328125,74.539306640625,0,0,0,0,0,0,0,0,0,0,0
1671151183.9448347,0,-114.37237548828125,196.36962890625,99.365234375,1,-29.63507080078125,116.122802734375,-276.504150390625,2,23.5626220703125,117.612060546875,-281.74609375,3,166.3997802734375,196.033935546875,74.526123046875,0,0,0,0,0,0,0,0,0,0,0
1671151183.95494,0,-114.41265869140625,196.37060546875,99.35693359375,1,-29.56964111328125,116.165771484375,-276.56494140625,2,23.5740966796875,117.615478515625,-281.69091796875,3,166.4410400390625,196.092529296875,74.5966796875,0,0,0,0,0,0,0,0,0,0,0
1671151183.96479,0,-114.4351806640625,196.34033203125,99.33837890625,1,-29.6041259765625,116.126708984375,-276.519287109375,2,23.5262451171875,117.61962890625,-281.74658203125,3,166.40771484375,196.100830078125,74.55859375,0,0,0,0,0,0,0,0,0,0,0
1671151183.974811,0,-114.399658203125,196.357421875,99.364990234375,1,-29.5675048828125,116.103515625,-276.5615234375,2,23.556640625,117.6455078125,-281.72998046875,3,166.383056640625,196.037109375,74.540283203125,0,0,0,0,0,0,0,0,0,0,0
1671151183.9848104,0,-114.4345703125,196.359130859375,99.36376953125,1,-29.57952880859375,116.16064453125,-276.5400390625,2,23.56396484375,117.60205078125,-281.69970703125,3,166.40087890625,196.032470703125,74.548095703125,0,0,0,0,0,0,0,0,0,0,0
1671151183.9948254,0,-114.36590576171875,196.32421875,99.376953125,1,-29.603515625,116.12841796875,-276.544921875,2,23.5377197265625,117.607421875,-281.727783203125,3,166.4078369140625,196.056640625,74.53125,0,0,0,0,0,0,0,0,0,0,0
1671151184.0048928,0,-114.40087890625,196.368896484375,99.364990234375,1,-29.5426025390625,116.1220703125,-276.577880859375,2,23.578857421875,117.626708984375,-281.697265625,3,166.435546875,196.070068359375,74.59375,0,0,0,0,0,0,0,0,0,0,0
1671151184.014822,0,-114.40997314453125,196.305419921875,99.349609375,1,-29.61798095703125,116.09423828125,-276.53466796875,2,23.55908203125,117.613525390625,-281.71923828125,3,166.436279296875,196.078125,74.58154296875,0,0,0,0,0,0,0,0,0,0,0
1671151184.0248153,0,-114.3824462890625,196.302001953125,99.366943359375,1,-29.5760498046875,116.152099609375,-276.55712890625,2,23.5911865234375,117.645263671875,-281.697998046875,3,166.412109375,196.0703125,74.551513671875,0,0,0,0,0,0,0,0,0,0,0
1671151184.0348272,0,-114.448486328125,196.35791015625,99.349609375,1,-29.56201171875,116.12451171875,-276.5283203125,2,23.564697265625,117.590576171875,-281.686767578125,3,166.393310546875,196.047119140625,74.53173828125,0,0,0,0,0,0,0,0,0,0,0
1671151184.0448174,0,-114.45703125,196.325439453125,99.333984375,1,-29.516357421875,116.10791015625,-276.572509765625,2,23.576416015625,117.62890625,-281.690673828125,3,166.42529296875,196.103515625,74.607177734375,0,0,0,0,0,0,0,0,0,0,0
1671151184.0548234,0,-114.4256591796875,196.308349609375,99.369384765625,1,-29.58135986328125,116.17529296875,-276.603271484375,2,23.570068359375,117.614990234375,-281.699462890625,3,166.423095703125,196.068115234375,74.59521484375,0,0,0,0,0,0,0,0,0,0,0
1671151184.0648165,0,-114.4130859375,196.28955078125,99.361083984375,1,-29.6112060546875,116.0869140625,-276.544189453125,2,23.557861328125,117.587890625,-281.711181640625,3,166.4466552734375,196.076904296875,74.601806640625,0,0,0,0,0,0,0,0,0,0,0
1671151184.0748255,0,-114.421875,196.328125,99.361572265625,1,-29.59930419921875,116.151123046875,-276.56982421875,2,23.5667724609375,117.6044921875,-281.689453125,3,166.407958984375,196.05126953125,74.58447265625,0,0,0,0,0,0,0,0,0,0,0
1671151184.0848136,0,-114.39117431640625,196.351806640625,99.350341796875,1,-29.6043701171875,116.135498046875,-276.569091796875,2,23.5606689453125,117.61181640625,-281.7158203125,3,166.417236328125,196.040771484375,74.55810546875,0,0,0,0,0,0,0,0,0,0,0
1671151184.0948284,0,-114.27679443359375,196.412353515625,99.36181640625,1,-29.632080078125,116.110107421875,-276.513671875,2,23.5443115234375,117.59716796875,-281.72705078125,3,166.3873291015625,196.04345703125,74.54150390625,0,0,0,0,0,0,0,0,0,0,0
1671151184.1048822,0,-114.4295654296875,196.351806640625,99.37353515625,1,-29.5498046875,116.126220703125,-276.60205078125,2,23.552978515625,117.67822265625,-281.74658203125,3,166.429931640625,196.102294921875,74.5869140625,0,0,0,0,0,0,0,0,0,0,0
1671151184.1147976,0,-114.435302734375,196.35888671875,99.357177734375,1,-29.61181640625,116.09423828125,-276.506591796875,2,23.534423828125,117.620361328125,-281.7314453125,3,166.4281005859375,196.090576171875,74.608642578125,0,0,0,0,0,0,0,0,0,0,0
1671151184.1248128,0,-114.4189453125,196.332763671875,99.3662109375,1,-29.659912109375,116.119384765625,-276.52880859375,2,23.5494384765625,117.635498046875,-281.71044921875,3,166.403076171875,196.0244140625,74.545654296875,0,0,0,0,0,0,0,0,0,0,0
1671151184.1348107,0,-114.38580322265625,196.389404296875,99.349853515625,1,-29.591796875,116.1494140625,-276.5654296875,2,23.54345703125,117.614013671875,-281.71875,3,166.4019775390625,196.055908203125,74.531494140625,0,0,0,0,0,0,0,0,0,0,0
1671151184.1448283,0,-114.4151611328125,196.353515625,99.349609375,1,-29.608642578125,116.111572265625,-276.50732421875,2,23.53857421875,117.5791015625,-281.697998046875,3,166.397705078125,196.05078125,74.5654296875,0,0,0,0,0,0,0,0,0,0,0
1671151184.1549368,0,-114.3424072265625,196.343017578125,99.395263671875,1,-29.5374755859375,116.1357421875,-276.515380859375,2,23.56298828125,117.611328125,-281.7060546875,3,166.43701171875,196.058349609375,74.5732421875,0,0,0,0,0,0,0,0,0,0,0
1671151184.1648157,0,-114.3956298828125,196.332763671875,99.353759765625,1,-29.6387939453125,116.10986328125,-276.539794921875,2,23.5751953125,117.586669921875,-281.7021484375,3,166.4688720703125,196.060791015625,74.656982421875,0,0,0,0,0,0,0,0,0,0,0
1671151184.174825,0,-114.3790283203125,196.361083984375,99.375244140625,1,-29.58612060546875,116.1142578125,-276.54296875,2,23.57470703125,117.620361328125,-281.6943359375,3,166.399169921875,196.045654296875,74.537841796875,0,0,0,0,0,0,0,0,0,0,0
1671151184.1848137,0,-114.36187744140625,196.4072265625,99.349853515625,1,-29.4915771484375,116.111328125,-276.583740234375,2,23.569580078125,117.61181640625,-281.700439453125,3,166.389892578125,196.05419921875,74.51513671875,0,0,0,0,0,0,0,0,0,0,0
1671151184.1948245,0,-114.43243408203125,196.35302734375,99.394775390625,1,-29.619873046875,116.153564453125,-276.515869140625,2,23.571044921875,117.6064453125,-281.727294921875,3,166.4130859375,196.032470703125,74.553466796875,0,0,0,0,0,0,0,0,0,0,0
1671151184.204899,0,-114.40142822265625,196.38232421875,99.3857421875,1,-29.52239990234375,116.131591796875,-276.54833984375,2,23.587158203125,117.6357421875,-281.70703125,3,166.4566650390625,196.0712890625,74.595947265625,0,0,0,0,0,0,0,0,0,0,0
1671151184.2147892,0,-114.33111572265625,196.37158203125,99.344482421875,1,-29.6395263671875,116.1474609375,-276.52685546875,2,23.5673828125,117.612548828125,-281.710205078125,3,166.440185546875,196.094970703125,74.590087890625,0,0,0,0,0,0,0,0,0,0,0
1671151184.2248092,0,-114.388427734375,196.33984375,99.36474609375,1,-29.62646484375,116.10986328125,-276.539306640625,2,23.5697021484375,117.586181640625,-281.691162109375,3,166.40087890625,196.063720703125,74.54248046875,0,0,0,0,0,0,0,0,0,0,0
1671151184.2348113,0,-114.39935302734375,196.36865234375,99.37060546875,1,-29.5587158203125,116.12451171875,-276.550537109375,2,23.5682373046875,117.59912109375,-281.71435546875,3,166.4166259765625,196.029052734375,74.5771484375,0,0,0,0,0,0,0,0,0,0,0
1671151184.2447896,0,-114.37139892578125,196.3857421875,99.36767578125,1,-29.625244140625,116.12109375,-276.4970703125,2,23.568603515625,117.625,-281.741943359375,3,166.4071044921875,196.03515625,74.546875,0,0,0,0,0,0,0,0,0,0,0
1671151184.2548878,0,-114.3638916015625,196.340087890625,99.353515625,1,-29.5474853515625,116.128662109375,-276.55029296875,2,23.573486328125,117.617431640625,-281.720703125,3,166.419677734375,196.06591796875,74.6064453125,0,0,0,0,0,0,0,0,0,0,0
1671151184.26479,0,-114.4200439453125,196.315673828125,99.3212890625,1,-29.62286376953125,116.13330078125,-276.53955078125,2,23.530517578125,117.61767578125,-281.745849609375,3,166.418212890625,196.077392578125,74.564697265625,0,0,0,0,0,0,0,0,0,0,0
1671151184.2748125,0,-114.40802001953125,196.349609375,99.354736328125,1,-29.54345703125,116.139892578125,-276.5576171875,2,23.5621337890625,117.62255859375,-281.717041015625,3,166.41015625,196.04443359375,74.554443359375,0,0,0,0,0,0,0,0,0,0,0
1671151184.284811,0,-114.43310546875,196.36376953125,99.3466796875,1,-29.6219482421875,116.151611328125,-276.564697265625,2,23.5797119140625,117.60595703125,-281.700927734375,3,166.418212890625,196.046142578125,74.563720703125,0,0,0,0,0,0,0,0,0,0,0
1671151184.2948308,0,-114.39056396484375,196.385498046875,99.376220703125,1,-29.592529296875,116.119140625,-276.521484375,2,23.567138671875,117.6201171875,-281.728271484375,3,166.413818359375,196.076904296875,74.53662109375,0,0,0,0,0,0,0,0,0,0,0
1671151184.3047903,0,-114.41448974609375,196.356201171875,99.369140625,1,-29.588623046875,116.154541015625,-276.56787109375,2,23.568115234375,117.6455078125,-281.703125,3,166.43115234375,196.094482421875,74.584228515625,0,0,0,0,0,0,0,0,0,0,0
1671151184.31483,0,-114.4093017578125,196.350830078125,99.3359375,1,-29.59967041015625,116.1025390625,-276.511474609375,2,23.5648193359375,117.591064453125,-281.721923828125,3,166.456298828125,196.071533203125,74.610595703125,0,0,0,0,0,0,0,0,0,0,0
1671151184.3248212,0,-114.43902587890625,196.36865234375,99.34814453125,1,-29.56500244140625,116.158447265625,-276.541748046875,2,23.591552734375,117.626953125,-281.694091796875,3,166.404541015625,196.05517578125,74.5458984375,0,0,0,0,0,0,0,0,0,0,0
1671151184.3348296,0,-114.43017578125,196.358642578125,99.406982421875,1,-29.62908935546875,116.163818359375,-276.53759765625,2,23.5814208984375,117.5927734375,-281.716064453125,3,166.4122314453125,196.038330078125,74.55078125,0,0,0,0,0,0,0,0,0,0,0
1671151184.3448143,0,-114.45220947265625,196.38232421875,99.370361328125,1,-29.6845703125,116.15771484375,-276.514892578125,2,23.5594482421875,117.598388671875,-281.7265625,3,166.404296875,196.023681640625,74.552490234375,0,0,0,0,0,0,0,0,0,0,0
1671151184.3549564,0,-114.39501953125,196.343505859375,99.34912109375,1,-29.52142333984375,116.07373046875,-276.52685546875,2,23.560546875,117.626953125,-281.73828125,3,166.42578125,196.07373046875,74.6181640625,0,0,0,0,0,0,0,0,0,0,0
1671151184.3648164,0,-114.4189453125,196.314697265625,99.3330078125,1,-29.62646484375,116.10693359375,-276.509033203125,2,23.5634765625,117.60595703125,-281.736572265625,3,166.4141845703125,196.025146484375,74.593505859375,0,0,0,0,0,0,0,0,0,0,0
1671151184.374828,0,-114.4176025390625,196.3681640625,99.36279296875,1,-29.580078125,116.106201171875,-276.56201171875,2,23.562255859375,117.651123046875,-281.7216796875,3,166.41259765625,196.05615234375,74.524658203125,0,0,0,0,0,0,0,0,0,0,0
1671151184.3848212,0,-114.447998046875,196.317626953125,99.410400390625,1,-29.54986572265625,116.107421875,-276.515625,2,23.5615234375,117.61279296875,-281.71826171875,3,166.4111328125,196.042724609375,74.55810546875,0,0,0,0,0,0,0,0,0,0,0
1671151184.3947942,0,-114.37567138671875,196.366943359375,99.36865234375,1,-29.6094970703125,116.132080078125,-276.54638671875,2,23.5679931640625,117.5947265625,-281.7119140625,3,166.4351806640625,196.0322265625,74.55615234375,0,0,0,0,0,0,0,0,0,0,0
1671151184.40479,0,-114.3668212890625,196.367431640625,99.34375,1,-29.6187744140625,116.11181640625,-276.53662109375,2,23.5750732421875,117.633056640625,-281.721435546875,3,166.4425048828125,196.07421875,74.582763671875,0,0,0,0,0,0,0,0,0,0,0
1671151184.414815,0,-114.39453125,196.34423828125,99.339599609375,1,-29.64715576171875,116.114501953125,-276.5400390625,2,23.5777587890625,117.5859375,-281.720703125,3,166.471435546875,196.091796875,74.625244140625,0,0,0,0,0,0,0,0,0,0,0
1671151184.4248092,0,-114.40924072265625,196.36181640625,99.376220703125,1,-29.601806640625,116.14453125,-276.553955078125,2,23.5526123046875,117.60595703125,-281.716552734375,3,166.4178466796875,196.052001953125,74.537353515625,0,0,0,0,0,0,0,0,0,0,0
1671151184.434819,0,-114.36407470703125,196.368408203125,99.38134765625,1,-29.56298828125,116.162109375,-276.588623046875,2,23.560546875,117.60302734375,-281.72900390625,3,166.4149169921875,196.060546875,74.55029296875,0,0,0,0,0,0,0,0,0,0,0
1671151184.4448164,0,-114.3953857421875,196.330078125,99.35205078125,1,-29.62451171875,116.149169921875,-276.5498046875,2,23.563232421875,117.61572265625,-281.7275390625,3,166.4625244140625,196.0693359375,74.62939453125,0,0,0,0,0,0,0,0,0,0,0
1671151184.4549491,0,-114.3895263671875,196.357421875,99.3583984375,1,-29.60980224609375,116.09619140625,-276.50146484375,2,23.568603515625,117.6162109375,-281.72998046875,3,166.445556640625,196.093017578125,74.595458984375,0,0,0,0,0,0,0,0,0,0,0
1671151184.4648528,0,-114.38372802734375,196.348876953125,99.348388671875,1,-29.6656494140625,116.1376953125,-276.521728515625,2,23.560302734375,117.621826171875,-281.740966796875,3,166.44580078125,196.0947265625,74.58154296875,0,0,0,0,0,0,0,0,0,0,0
1671151184.4748313,0,-114.36492919921875,196.32763671875,99.37548828125,1,-29.5648193359375,116.1201171875,-276.555419921875,2,23.55859375,117.612060546875,-281.730712890625,3,166.418701171875,196.0302734375,74.564697265625,0,0,0,0,0,0,0,0,0,0,0
1671151184.4848232,0,-114.39923095703125,196.361328125,99.371337890625,1,-29.590087890625,116.147705078125,-276.537353515625,2,23.5401611328125,117.59375,-281.748779296875,3,166.40576171875,196.02734375,74.558349609375,0,0,0,0,0,0,0,0,0,0,0
1671151184.4947922,0,-114.4071044921875,196.339599609375,99.3388671875,1,-29.5498046875,116.108154296875,-276.62158203125,2,23.564208984375,117.639404296875,-281.75341796875,3,166.4376220703125,196.07861328125,74.626953125,0,0,0,0,0,0,0,0,0,0,0
1671151184.5048676,0,-114.37664794921875,196.3291015625,99.375244140625,1,-29.58441162109375,116.15869140625,-276.5390625,2,23.546142578125,117.647216796875,-281.70703125,3,166.4556884765625,196.110595703125,74.58447265625,0,0,0,0,0,0,0,0,0,0,0
1671151184.5149662,0,-114.424072265625,196.345703125,99.351318359375,1,-29.623779296875,116.129638671875,-276.538818359375,2,23.5467529296875,117.595947265625,-281.712890625,3,166.4254150390625,196.0556640625,74.603759765625,0,0,0,0,0,0,0,0,0,0,0
1671151184.52498,0,-114.36163330078125,196.376708984375,99.35302734375,1,-29.5848388671875,116.123291015625,-276.505126953125,2,23.56982421875,117.635986328125,-281.7294921875,3,166.420654296875,196.0654296875,74.54248046875,0,0,0,0,0,0,0,0,0,0,0
1671151184.534993,0,-114.42242431640625,196.389892578125,99.349365234375,1,-29.5567626953125,116.167236328125,-276.591064453125,2,23.5443115234375,117.6044921875,-281.742919921875,3,166.4395751953125,196.08056640625,74.560302734375,0,0,0,0,0,0,0,0,0,0,0
1671151184.5448647,0,-114.38238525390625,196.408935546875,99.344970703125,1,-29.6351318359375,116.125,-276.53857421875,2,23.559814453125,117.6025390625,-281.735595703125,3,166.4356689453125,196.06201171875,74.533203125,0,0,0,0,0,0,0,0,0,0,0
1671151184.555006,0,-114.416015625,196.39892578125,99.3671875,1,-29.5677490234375,116.1162109375,-276.535400390625,2,23.5780029296875,117.617919921875,-281.678466796875,3,166.469970703125,196.1123046875,74.599609375,0,0,0,0,0,0,0,0,0,0,0
1671151184.5649357,0,-114.3740234375,196.3173828125,99.34033203125,1,-29.6114501953125,116.1123046875,-276.545166015625,2,23.556884765625,117.617919921875,-281.73388671875,3,166.46142578125,196.1025390625,74.596435546875,0,0,0,0,0,0,0,0,0,0,0
1671151184.5748513,0,-114.3958740234375,196.36474609375,99.345703125,1,-29.5185546875,116.093994140625,-276.5390625,2,23.563720703125,117.651611328125,-281.729736328125,3,166.418212890625,196.05712890625,74.530029296875,0,0,0,0,0,0,0,0,0,0,0
1671151184.5848277,0,-114.39837646484375,196.371826171875,99.3701171875,1,-29.58624267578125,116.1474609375,-276.550537109375,2,23.537841796875,117.607421875,-281.74658203125,3,166.4278564453125,196.060791015625,74.55126953125,0,0,0,0,0,0,0,0,0,0,0
1671151184.5948257,0,-114.3819580078125,196.350830078125,99.3466796875,1,-29.5777587890625,116.14990234375,-276.56494140625,2,23.5811767578125,117.662109375,-281.70458984375,3,166.4267578125,196.117431640625,74.612060546875,0,0,0,0,0,0,0,0,0,0,0
1671151184.6049356,0,-114.3602294921875,196.359619140625,99.360107421875,1,-29.61004638671875,116.170166015625,-276.572998046875,2,23.561279296875,117.627197265625,-281.729736328125,3,166.437255859375,196.08642578125,74.593017578125,0,0,0,0,0,0,0,0,0,0,0
1671151184.6148715,0,-114.391845703125,196.335693359375,99.340087890625,1,-29.6517333984375,116.155517578125,-276.573486328125,2,23.5513916015625,117.628173828125,-281.7392578125,3,166.4794921875,196.094970703125,74.6142578125,0,0,0,0,0,0,0,0,0,0,0
1671151184.624934,0,-114.3924560546875,196.336669921875,99.375,1,-29.62225341796875,116.174560546875,-276.55078125,2,23.551513671875,117.62646484375,-281.697509765625,3,166.431396484375,196.041259765625,74.55859375,0,0,0,0,0,0,0,0,0,0,0
1671151184.6348495,0,-114.40740966796875,196.36669921875,99.35546875,1,-29.56982421875,116.1318359375,-276.54248046875,2,23.547607421875,117.609619140625,-281.753662109375,3,166.3779296875,196.046142578125,74.5625,0,0,0,0,0,0,0,0,0,0,0
1671151184.6448898,0,-114.4486083984375,196.353515625,99.362060546875,1,-29.6513671875,116.154052734375,-276.548828125,2,23.580078125,117.622802734375,-281.729736328125,3,166.4134521484375,196.06005859375,74.557861328125,0,0,0,0,0,0,0,0,0,0,0
1671151184.6549635,0,-114.451904296875,196.287841796875,99.363037109375,1,-29.5992431640625,116.14306640625,-276.558349609375,2,23.594482421875,117.6123046875,-281.689453125,3,166.47509765625,196.104736328125,74.6279296875,0,0,0,0,0,0,0,0,0,0,0
1671151184.6649437,0,-114.40740966796875,196.296875,99.3505859375,1,-29.617919921875,116.144775390625,-276.537353515625,2,23.553466796875,117.6015625,-281.731201171875,3,166.4444580078125,196.06884765625,74.606201171875,0,0,0,0,0,0,0,0,0,0,0
1671151184.674991,0,-114.4124755859375,196.30712890625,99.359619140625,1,-29.57098388671875,116.163330078125,-276.569580078125,2,23.55419921875,117.635009765625,-281.74267578125,3,166.3897705078125,196.060791015625,74.533447265625,0,0,0,0,0,0,0,0,0,0,0
1671151184.684934,0,-114.42041015625,196.347900390625,99.394287109375,1,-29.6082763671875,116.14306640625,-276.555908203125,2,23.555419921875,117.581787109375,-281.71435546875,3,166.407470703125,196.053955078125,74.53759765625,0,0,0,0,0,0,0,0,0,0,0
1671151184.6949124,0,-114.3961181640625,196.30615234375,99.363037109375,1,-29.5577392578125,116.1123046875,-276.539306640625,2,23.552001953125,117.608154296875,-281.7255859375,3,166.40966796875,196.05517578125,74.5947265625,0,0,0,0,0,0,0,0,0,0,0
1671151184.7048805,0,-114.40423583984375,196.36767578125,99.366943359375,1,-29.5269775390625,116.095947265625,-276.634521484375,2,23.5582275390625,117.62841796875,-281.704345703125,3,166.462646484375,196.079833984375,74.591064453125,0,0,0,0,0,0,0,0,0,0,0
1671151184.7149584,0,-114.3939208984375,196.362060546875,99.329833984375,1,-29.62445068359375,116.122802734375,-276.539794921875,2,23.541748046875,117.6357421875,-281.752197265625,3,166.41943359375,196.056396484375,74.584228515625,0,0,0,0,0,0,0,0,0,0,0
1671151184.72485,0,-114.45135498046875,196.4033203125,99.3876953125,1,-29.58831787109375,116.14794921875,-276.54833984375,2,23.5633544921875,117.644287109375,-281.71533203125,3,166.421142578125,196.0478515625,74.527587890625,0,0,0,0,0,0,0,0,0,0,0
1671151184.7348468,0,-114.39764404296875,196.39697265625,99.35693359375,1,-29.59149169921875,116.169921875,-276.547119140625,2,23.5850830078125,117.591064453125,-281.70654296875,3,166.42333984375,196.075927734375,74.537353515625,0,0,0,0,0,0,0,0,0,0,0
1671151184.744848,0,-114.31622314453125,196.39990234375,99.36279296875,1,-29.6357421875,116.15625,-276.518310546875,2,23.560791015625,117.59814453125,-281.73779296875,3,166.401611328125,196.05517578125,74.531005859375,0,0,0,0,0,0,0,0,0,0,0
1671151184.7549317,0,-114.32830810546875,196.396240234375,99.36865234375,1,-29.59454345703125,116.150634765625,-276.56201171875,2,23.5615234375,117.652099609375,-281.74072265625,3,166.4727783203125,196.07568359375,74.5888671875,0,0,0,0,0,0,0,0,0,0,0
1671151184.7648242,0,-114.3431396484375,196.360107421875,99.3642578125,1,-29.6143798828125,116.115478515625,-276.52001953125,2,23.5394287109375,117.605712890625,-281.75048828125,3,166.45751953125,196.06396484375,74.574462890625,0,0,0,0,0,0,0,0,0,0,0
1671151184.774824,0,-114.378662109375,196.360595703125,99.38232421875,1,-29.5303955078125,116.104248046875,-276.52880859375,2,23.5711669921875,117.609619140625,-281.701171875,3,166.447021484375,196.06396484375,74.5322265625,0,0,0,0,0,0,0,0,0,0,0
1671151184.7848244,0,-114.3759765625,196.414306640625,99.354248046875,1,-29.5408935546875,116.103759765625,-276.55419921875,2,23.572509765625,117.603271484375,-281.717529296875,3,166.447998046875,196.05224609375,74.5478515625,0,0,0,0,0,0,0,0,0,0,0
1671151184.7949133,0,-114.33294677734375,196.380615234375,99.3408203125,1,-29.599609375,116.130859375,-276.5341796875,2,23.58251953125,117.626220703125,-281.67578125,3,166.4891357421875,196.11962890625,74.607177734375,0,0,0,0,0,0,0,0,0,0,0
1671151184.8048906,0,-114.32513427734375,196.384033203125,99.36767578125,1,-29.60748291015625,116.163330078125,-276.535400390625,2,23.57470703125,117.625,-281.70947265625,3,166.47705078125,196.1025390625,74.610595703125,0,0,0,0,0,0,0,0,0,0,0
1671151184.8149836,0,-114.35125732421875,196.36083984375,99.31884765625,1,-29.65283203125,116.14501953125,-276.55224609375,2,23.576416015625,117.60888671875,-281.7373046875,3,166.4681396484375,196.1103515625,74.59716796875,0,0,0,0,0,0,0,0,0,0,0
1671151184.8249822,0,-114.35650634765625,196.38427734375,99.3759765625,1,-29.61328125,116.135498046875,-276.5615234375,2,23.58154296875,117.608154296875,-281.702392578125,3,166.4398193359375,196.0546875,74.55029296875,0,0,0,0,0,0,0,0,0,0,0
1671151184.8349197,0,-114.40338134765625,196.37939453125,99.340087890625,1,-29.552490234375,116.0888671875,-276.515380859375,2,23.5546875,117.61181640625,-281.725830078125,3,166.428466796875,196.050048828125,74.56591796875,0,0,0,0,0,0,0,0,0,0,0
1671151184.8450537,0,-114.37762451171875,196.37451171875,99.38623046875,1,-29.63336181640625,116.122314453125,-276.552490234375,2,23.5687255859375,117.612060546875,-281.737548828125,3,166.4246826171875,196.0498046875,74.533447265625,0,0,0,0,0,0,0,0,0,0,0
1671151184.854894,0,-114.33636474609375,196.38330078125,99.365234375,1,-29.5506591796875,116.120849609375,-276.557373046875,2,23.5672607421875,117.61865234375,-281.718505859375,3,166.457275390625,196.085205078125,74.59716796875,0,0,0,0,0,0,0,0,0,0,0
1671151184.8649206,0,-114.37158203125,196.3515625,99.35009765625,1,-29.6029052734375,116.093017578125,-276.5400390625,2,23.5489501953125,117.601806640625,-281.73193359375,3,166.469482421875,196.11767578125,74.595458984375,0,0,0,0,0,0,0,0,0,0,0
1671151184.8748693,0,-114.35272216796875,196.370849609375,99.377685546875,1,-29.580810546875,116.161376953125,-276.561767578125,2,23.59521484375,117.6279296875,-281.69482421875,3,166.3958740234375,196.05859375,74.537353515625,0,0,0,0,0,0,0,0,0,0,0
1671151184.8848236,0,-114.35107421875,196.35546875,99.337158203125,1,-29.49468994140625,116.1064453125,-276.54052734375,2,23.5714111328125,117.58740234375,-281.718017578125,3,166.3980712890625,196.03173828125,74.517333984375,0,0,0,0,0,0,0,0,0,0,0
1671151184.8948333,0,-114.3585205078125,196.33544921875,99.357666015625,1,-29.5933837890625,116.099365234375,-276.53515625,2,23.561279296875,117.599365234375,-281.746337890625,3,166.4454345703125,196.041259765625,74.53515625,0,0,0,0,0,0,0,0,0,0,0
1671151184.9048994,0,-114.34783935546875,196.367431640625,99.341796875,1,-29.5714111328125,116.12158203125,-276.555908203125,2,23.5548095703125,117.598388671875,-281.69775390625,3,166.486083984375,196.09619140625,74.58837890625,0,0,0,0,0,0,0,0,0,0,0
1671151184.9148443,0,-114.395751953125,196.339111328125,99.3359375,1,-29.582763671875,116.091796875,-276.509765625,2,23.570556640625,117.592041015625,-281.701416015625,3,166.426025390625,196.067138671875,74.574462890625,0,0,0,0,0,0,0,0,0,0,0
1671151184.9248414,0,-114.36358642578125,196.399169921875,99.38330078125,1,-29.5491943359375,116.1171875,-276.556396484375,2,23.57373046875,117.592529296875,-281.7021484375,3,166.3992919921875,196.041748046875,74.55419921875,0,0,0,0,0,0,0,0,0,0,0
1671151184.93484,0,-114.35711669921875,196.375244140625,99.35888671875,1,-29.55615234375,116.111328125,-276.559326171875,2,23.514404296875,117.6220703125,-281.741455078125,3,166.3990478515625,196.03759765625,74.560546875,0,0,0,0,0,0,0,0,0,0,0
1671151184.94485,0,-114.37384033203125,196.411865234375,99.373779296875,1,-29.5880126953125,116.120849609375,-276.5283203125,2,23.557861328125,117.603759765625,-281.73193359375,3,166.409423828125,196.060546875,74.54052734375,0,0,0,0,0,0,0,0,0,0,0
1671151184.9549274,0,-114.368896484375,196.344970703125,99.340576171875,1,-29.556640625,116.112548828125,-276.527587890625,2,23.5748291015625,117.586181640625,-281.699951171875,3,166.4923095703125,196.101318359375,74.570556640625,0,0,0,0,0,0,0,0,0,0,0
1671151184.9648507,0,-114.30535888671875,196.375,99.318359375,1,-29.65106201171875,116.1455078125,-276.5234375,2,23.5845947265625,117.589111328125,-281.700439453125,3,166.4434814453125,196.112548828125,74.57373046875,0,0,0,0,0,0,0,0,0,0,0
1671151184.9748325,0,-114.40948486328125,196.391845703125,99.323974609375,1,-29.58038330078125,116.162109375,-276.55078125,2,23.6021728515625,117.669189453125,-281.69580078125,3,166.422119140625,196.046142578125,74.548583984375,0,0,0,0,0,0,0,0,0,0,0
1671151184.984832,0,-114.3482666015625,196.392822265625,99.34375,1,-29.5875244140625,116.134765625,-276.54736328125,2,23.574951171875,117.60107421875,-281.697265625,3,166.4412841796875,196.06201171875,74.531005859375,0,0,0,0,0,0,0,0,0,0,0
1671151184.9948225,0,-114.39825439453125,196.396484375,99.343505859375,1,-29.6138916015625,116.14990234375,-276.491943359375,2,23.5655517578125,117.60302734375,-281.716552734375,3,166.439208984375,196.060302734375,74.550048828125,0,0,0,0,0,0,0,0,0,0,0
1671151185.0048373,0,-114.3890380859375,196.398681640625,99.359619140625,1,-29.57135009765625,116.1591796875,-276.561279296875,2,23.579345703125,117.638427734375,-281.695068359375,3,166.46826171875,196.089599609375,74.595458984375,0,0,0,0,0,0,0,0,0,0,0
1671151185.014843,0,-114.37445068359375,196.3671875,99.342529296875,1,-29.646240234375,116.142578125,-276.553466796875,2,23.55126953125,117.609619140625,-281.73681640625,3,166.4517822265625,196.0732421875,74.6044921875,0,0,0,0,0,0,0,0,0,0,0
1671151185.0248282,0,-114.39666748046875,196.392333984375,99.381591796875,1,-29.6021728515625,116.163818359375,-276.564208984375,2,23.5609130859375,117.624267578125,-281.696044921875,3,166.422607421875,196.02978515625,74.549072265625,0,0,0,0,0,0,0,0,0,0,0
1671151185.0348418,0,-114.41107177734375,196.37353515625,99.361083984375,1,-29.552001953125,116.109130859375,-276.565673828125,2,23.552490234375,117.581787109375,-281.72998046875,3,166.4112548828125,196.03857421875,74.560302734375,0,0,0,0,0,0,0,0,0,0,0
1671151185.0448327,0,-114.40216064453125,196.365478515625,99.35205078125,1,-29.66119384765625,116.163330078125,-276.506591796875,2,23.5587158203125,117.615234375,-281.74951171875,3,166.40576171875,196.04150390625,74.557861328125,0,0,0,0,0,0,0,0,0,0,0
1671151185.0549314,0,-114.32403564453125,196.421142578125,99.354736328125,1,-29.62554931640625,116.1708984375,-276.55859375,2,23.572509765625,117.609375,-281.71630859375,3,166.4532470703125,196.09130859375,74.585205078125,0,0,0,0,0,0,0,0,0,0,0
1671151185.0648153,0,-114.328125,196.358642578125,99.340576171875,1,-29.617919921875,116.113525390625,-276.54541015625,2,23.5496826171875,117.593017578125,-281.74609375,3,166.428955078125,196.09033203125,74.61083984375,0,0,0,0,0,0,0,0,0,0,0
1671151185.074805,0,-114.3125,196.45849609375,99.337646484375,1,-29.614990234375,116.118408203125,-276.502197265625,2,23.5792236328125,117.6162109375,-281.6923828125,3,166.428466796875,196.0732421875,74.546142578125,0,0,0,0,0,0,0,0,0,0,0
1671151185.0848176,0,-114.35137939453125,196.388427734375,99.372314453125,1,-29.480712890625,116.13671875,-276.5625,2,23.567138671875,117.60498046875,-281.720703125,3,166.425537109375,196.087890625,74.542724609375,0,0,0,0,0,0,0,0,0,0,0
1671151185.0948281,0,-114.35772705078125,196.386474609375,99.354736328125,1,-29.56402587890625,116.086669921875,-276.542724609375,2,23.57763671875,117.586181640625,-281.71728515625,3,166.417724609375,196.042724609375,74.52978515625,0,0,0,0,0,0,0,0,0,0,0
1671151185.1049302,0,-114.38531494140625,196.420166015625,99.37548828125,1,-29.569091796875,116.103271484375,-276.558349609375,2,23.575927734375,117.623779296875,-281.68505859375,3,166.4267578125,196.096923828125,74.596435546875,0,0,0,0,0,0,0,0,0,0,0
1671151185.114791,0,-114.364990234375,196.347412109375,99.34716796875,1,-29.64404296875,116.140380859375,-276.55322265625,2,23.558837890625,117.6005859375,-281.723876953125,3,166.4564208984375,196.09375,74.578369140625,0,0,0,0,0,0,0,0,0,0,0
1671151185.1248147,0,-114.39593505859375,196.39892578125,99.37255859375,1,-29.5770263671875,116.095458984375,-276.538330078125,2,23.5628662109375,117.660400390625,-281.708251953125,3,166.4134521484375,196.07275390625,74.546875,0,0,0,0,0,0,0,0,0,0,0
1671151185.134825,0,-114.36090087890625,196.3994140625,99.347412109375,1,-29.54766845703125,116.0986328125,-276.556640625,2,23.5589599609375,117.609619140625,-281.727294921875,3,166.3828125,196.04052734375,74.536865234375,0,0,0,0,0,0,0,0,0,0,0
1671151185.1448448,0,-114.39581298828125,196.37939453125,99.364501953125,1,-29.6143798828125,116.099609375,-276.53369140625,2,23.565673828125,117.59130859375,-281.706787109375,3,166.40380859375,196.05029296875,74.525390625,0,0,0,0,0,0,0,0,0,0,0
1671151185.1549354,0,-114.3858642578125,196.34228515625,99.370849609375,1,-29.54241943359375,116.078125,-276.567138671875,2,23.5599365234375,117.637451171875,-281.736328125,3,166.403564453125,196.0791015625,74.55908203125,0,0,0,0,0,0,0,0,0,0,0
1671151185.1648855,0,-114.3739013671875,196.32958984375,99.347900390625,1,-29.6224365234375,116.13134765625,-276.51318359375,2,23.5697021484375,117.61865234375,-281.7333984375,3,166.445068359375,196.070556640625,74.6083984375,0,0,0,0,0,0,0,0,0,0,0
1671151185.1748343,0,-114.42938232421875,196.36767578125,99.383544921875,1,-29.598388671875,116.141357421875,-276.554931640625,2,23.5819091796875,117.626708984375,-281.701904296875,3,166.409912109375,196.06201171875,74.56298828125,0,0,0,0,0,0,0,0,0,0,0
1671151185.1848328,0,-114.36614990234375,196.41259765625,99.349365234375,1,-29.6077880859375,116.12060546875,-276.594482421875,2,23.558837890625,117.61328125,-281.73486328125,3,166.53173828125,196.128662109375,74.51953125,0,0,0,0,0,0,0,0,0,0,0
1671151185.1948414,0,-114.400146484375,196.354736328125,99.37158203125,1,-29.604248046875,116.13037109375,-276.542724609375,2,23.557373046875,117.598388671875,-281.708251953125,3,166.4967041015625,196.0849609375,74.52490234375,0,0,0,0,0,0,0,0,0,0,0
1671151185.2048848,0,-114.38427734375,196.337646484375,99.367431640625,1,-29.556640625,116.11328125,-276.548583984375,2,23.5545654296875,117.6064453125,-281.701171875,3,166.447265625,196.104248046875,74.593017578125,0,0,0,0,0,0,0,0,0,0,0
1671151185.2148447,0,-114.4158935546875,196.31884765625,99.342041015625,1,-29.5992431640625,116.105224609375,-276.5283203125,2,23.5360107421875,117.6015625,-281.73193359375,3,166.442138671875,196.08544921875,74.57958984375,0,0,0,0,0,0,0,0,0,0,0
1671151185.224837,0,-114.3985595703125,196.355712890625,99.355712890625,1,-29.5806884765625,116.147705078125,-276.547119140625,2,23.5628662109375,117.622802734375,-281.7314453125,3,166.4091796875,196.07373046875,74.5341796875,0,0,0,0,0,0,0,0,0,0,0
1671151185.2348378,0,-114.415283203125,196.352783203125,99.396484375,1,-29.595458984375,116.15283203125,-276.548095703125,2,23.561767578125,117.62109375,-281.73681640625,3,166.4227294921875,196.060302734375,74.553466796875,0,0,0,0,0,0,0,0,0,0,0
1671151185.2448242,0,-114.41632080078125,196.346435546875,99.36328125,1,-29.5904541015625,116.134033203125,-276.522705078125,2,23.554931640625,117.6103515625,-281.7412109375,3,166.427001953125,196.0771484375,74.57373046875,0,0,0,0,0,0,0,0,0,0,0
1671151185.254916,0,-114.33795166015625,196.393798828125,99.361572265625,1,-29.5870361328125,116.14111328125,-276.569091796875,2,23.555908203125,117.65234375,-281.717529296875,3,166.443359375,196.086669921875,74.601318359375,0,0,0,0,0,0,0,0,0,0,0
1671151185.2648518,0,-114.42041015625,196.324951171875,99.358642578125,1,-29.6046142578125,116.10302734375,-276.496826171875,2,23.553466796875,117.62060546875,-281.73974609375,3,166.429931640625,196.093994140625,74.604248046875,0,0,0,0,0,0,0,0,0,0,0
1671151185.2748346,0,-114.4447021484375,196.326904296875,99.383544921875,1,-29.5191650390625,116.1025390625,-276.537841796875,2,23.554931640625,117.61572265625,-281.730712890625,3,166.3968505859375,196.0478515625,74.5283203125,0,0,0,0,0,0,0,0,0,0,0
1671151185.2848315,0,-114.45404052734375,196.3447265625,99.368896484375,1,-29.4320068359375,116.04931640625,-276.598876953125,2,23.541015625,117.56982421875,-281.716552734375,3,166.401611328125,196.057373046875,74.55908203125,0,0,0,0,0,0,0,0,0,0,0
1671151185.2948303,0,-114.406005859375,196.2861328125,99.359375,1,-29.55462646484375,116.167724609375,-276.574951171875,2,23.5567626953125,117.5791015625,-281.670654296875,3,166.4613037109375,196.109375,74.589111328125,0,0,0,0,0,0,0,0,0,0,0
1671151185.3048952,0,-114.3890380859375,196.354736328125,99.38671875,1,-29.599365234375,116.10302734375,-276.513671875,2,23.589111328125,117.61474609375,-281.67578125,3,166.4451904296875,196.063232421875,74.614013671875,0,0,0,0,0,0,0,0,0,0,0
1671151185.3148496,0,-114.398193359375,196.343994140625,99.366455078125,1,-29.6163330078125,116.135009765625,-276.54296875,2,23.5621337890625,117.607666015625,-281.705322265625,3,166.4447021484375,196.071533203125,74.5927734375,0,0,0,0,0,0,0,0,0,0,0
1671151185.3248217,0,-114.42840576171875,196.38720703125,99.3740234375,1,-29.5804443359375,116.1572265625,-276.555419921875,2,23.544189453125,117.625732421875,-281.724609375,3,166.419677734375,196.04345703125,74.54638671875,0,0,0,0,0,0,0,0,0,0,0
1671151185.3348367,0,-114.41204833984375,196.32421875,99.388671875,1,-29.5482177734375,116.1298828125,-276.55908203125,2,23.556396484375,117.603759765625,-281.730224609375,3,166.428955078125,196.05029296875,74.569580078125,0,0,0,0,0,0,0,0,0,0,0
1671151185.3448184,0,-114.37896728515625,196.36865234375,99.3857421875,1,-29.5977783203125,116.093994140625,-276.552734375,2,23.548828125,117.585205078125,-281.705322265625,3,166.3682861328125,196.06884765625,74.5615234375,0,0,0,0,0,0,0,0,0,0,0
1671151185.3548877,0,-114.38897705078125,196.375,99.38818359375,1,-29.51446533203125,116.130859375,-276.59765625,2,23.5294189453125,117.65966796875,-281.7177734375,3,166.40625,196.11767578125,74.5869140625,0,0,0,0,0,0,0,0,0,0,0
1671151185.364848,0,-114.42205810546875,196.356689453125,99.345947265625,1,-29.626220703125,116.15869140625,-276.537841796875,2,23.4976806640625,117.612060546875,-281.7255859375,3,166.37255859375,196.072021484375,74.59326171875,0,0,0,0,0,0,0,0,0,0,0
1671151185.3748353,0,-114.40509033203125,196.339111328125,99.363037109375,1,-29.594482421875,116.1376953125,-276.559814453125,2,23.548583984375,117.623046875,-281.738525390625,3,166.3876953125,196.0234375,74.533447265625,0,0,0,0,0,0,0,0,0,0,0
1671151185.3848236,0,-114.39019775390625,196.338623046875,99.361572265625,1,-29.553955078125,116.1279296875,-276.590087890625,2,23.5640869140625,117.60302734375,-281.73095703125,3,166.380859375,196.020751953125,74.562744140625,0,0,0,0,0,0,0,0,0,0,0
1671151185.3948302,0,-114.41064453125,196.33837890625,99.3525390625,1,-29.67291259765625,116.12646484375,-276.541748046875,2,23.55322265625,117.60693359375,-281.716064453125,3,166.4273681640625,196.05322265625,74.538818359375,0,0,0,0,0,0,0,0,0,0,0
1671151185.4048755,0,-114.40576171875,196.343017578125,99.37255859375,1,-29.63250732421875,116.17431640625,-276.5546875,2,23.5496826171875,117.641845703125,-281.7421875,3,166.440673828125,196.08740234375,74.57568359375,0,0,0,0,0,0,0,0,0,0,0
1671151185.4148479,0,-114.40185546875,196.311279296875,99.359619140625,1,-29.6485595703125,116.130615234375,-276.55517578125,2,23.558349609375,117.602294921875,-281.720947265625,3,166.437255859375,196.074462890625,74.599365234375,0,0,0,0,0,0,0,0,0,0,0
1671151185.4248183,0,-114.40423583984375,196.321533203125,99.3974609375,1,-29.53143310546875,116.17626953125,-276.570556640625,2,23.5562744140625,117.64794921875,-281.726806640625,3,166.412353515625,196.070068359375,74.54296875,0,0,0,0,0,0,0,0,0,0,0
1671151185.4348395,0,-114.4210205078125,196.364990234375,99.364013671875,1,-29.541015625,116.150146484375,-276.568603515625,2,23.5694580078125,117.611328125,-281.721435546875,3,166.4322509765625,196.06884765625,74.5380859375,0,0,0,0,0,0,0,0,0,0,0
1671151185.4448166,0,-114.44183349609375,196.34716796875,99.383056640625,1,-29.63446044921875,116.1162109375,-276.541748046875,2,23.5775146484375,117.59619140625,-281.718017578125,3,166.406494140625,196.048095703125,74.521728515625,0,0,0,0,0,0,0,0,0,0,0
1671151185.4549077,0,-114.4228515625,196.348388671875,99.362548828125,1,-29.60009765625,116.108154296875,-276.57421875,2,23.575439453125,117.621826171875,-281.71142578125,3,166.44091796875,196.0732421875,74.60546875,0,0,0,0,0,0,0,0,0,0,0
1671151185.4648504,0,-114.4405517578125,196.31494140625,99.332763671875,1,-29.635986328125,116.1474609375,-276.548095703125,2,23.561767578125,117.62451171875,-281.74072265625,3,166.4384765625,196.050048828125,74.58642578125,0,0,0,0,0,0,0,0,0,0,0
1671151185.4748404,0,-114.43341064453125,196.278076171875,99.379638671875,1,-29.5670166015625,116.154296875,-276.55517578125,2,23.5592041015625,117.63330078125,-281.713623046875,3,166.505126953125,196.10400390625,74.560546875,0,0,0,0,0,0,0,0,0,0,0
1671151185.4848437,0,-114.3790283203125,196.340087890625,99.372802734375,1,-29.55548095703125,116.10888671875,-276.550048828125,2,23.56396484375,117.61376953125,-281.7412109375,3,166.4339599609375,196.08154296875,74.52978515625,0,0,0,0,0,0,0,0,0,0,0
1671151185.494791,0,-114.4061279296875,196.3310546875,99.34814453125,1,-29.53564453125,116.1259765625,-276.59326171875,2,23.5618896484375,117.621337890625,-281.70654296875,3,166.457763671875,196.103271484375,74.5869140625,0,0,0,0,0,0,0,0,0,0,0
1671151185.504877,0,-114.3941650390625,196.338623046875,99.378662109375,1,-29.60821533203125,116.1943359375,-276.5478515625,2,23.590576171875,117.60546875,-281.680419921875,3,166.452392578125,196.097412109375,74.574462890625,0,0,0,0,0,0,0,0,0,0,0
1671151185.5148256,0,-114.418701171875,196.334716796875,99.343994140625,1,-29.61322021484375,116.161865234375,-276.53466796875,2,23.5589599609375,117.614501953125,-281.75146484375,3,166.4302978515625,196.08837890625,74.567138671875,0,0,0,0,0,0,0,0,0,0,0
1671151185.524822,0,-114.36907958984375,196.4189453125,99.353271484375,1,-29.5771484375,116.13720703125,-276.544189453125,2,23.5811767578125,117.654052734375,-281.732421875,3,166.4320068359375,196.0693359375,74.545166015625,0,0,0,0,0,0,0,0,0,0,0
1671151185.5348384,0,-114.36962890625,196.372802734375,99.380859375,1,-29.6116943359375,116.181396484375,-276.57373046875,2,23.577392578125,117.619873046875,-281.727783203125,3,166.4130859375,196.06787109375,74.49853515625,0,0,0,0,0,0,0,0,0,0,0
1671151185.544817,0,-114.41412353515625,196.388916015625,99.3623046875,1,-29.607177734375,116.13623046875,-276.52392578125,2,23.5596923828125,117.623779296875,-281.724609375,3,166.4237060546875,196.058837890625,74.540771484375,0,0,0,0,0,0,0,0,0,0,0
1671151185.554904,0,-114.39599609375,196.352294921875,99.36474609375,1,-29.5870361328125,116.1279296875,-276.546142578125,2,23.5606689453125,117.637451171875,-281.7197265625,3,166.43603515625,196.0576171875,74.589111328125,0,0,0,0,0,0,0,0,0,0,0
1671151185.5648327,0,-114.40594482421875,196.32080078125,99.358642578125,1,-29.6519775390625,116.1240234375,-276.538330078125,2,23.55126953125,117.596923828125,-281.723388671875,3,166.4599609375,196.1083984375,74.610107421875,0,0,0,0,0,0,0,0,0,0,0
1671151185.5748293,0,-114.42822265625,196.353759765625,99.376953125,1,-29.574951171875,116.153564453125,-276.578857421875,2,23.58447265625,117.62158203125,-281.670166015625,3,166.4256591796875,196.048583984375,74.53076171875,0,0,0,0,0,0,0,0,0,0,0
1671151185.5848126,0,-114.40216064453125,196.359619140625,99.368896484375,1,-29.616455078125,116.1572265625,-276.581298828125,2,23.572021484375,117.5732421875,-281.71826171875,3,166.4310302734375,196.043212890625,74.544189453125,0,0,0,0,0,0,0,0,0,0,0
1671151185.594791,0,-114.396728515625,196.327880859375,99.361572265625,1,-29.627685546875,116.123291015625,-276.54345703125,2,23.529541015625,117.576904296875,-281.710205078125,3,166.435302734375,196.054931640625,74.53857421875,0,0,0,0,0,0,0,0,0,0,0
1671151185.6048129,0,-114.4483642578125,196.3505859375,99.39794921875,1,-29.51483154296875,116.103515625,-276.57177734375,2,23.5775146484375,117.579833984375,-281.689697265625,3,166.47705078125,196.1005859375,74.586669921875,0,0,0,0,0,0,0,0,0,0,0
1671151185.614789,0,-114.39520263671875,196.303466796875,99.4072265625,1,-29.629638671875,116.1591796875,-276.535400390625,2,23.5469970703125,117.60986328125,-281.7314453125,3,166.435302734375,196.090576171875,74.564208984375,0,0,0,0,0,0,0,0,0,0,0
1671151185.6248155,0,-114.403564453125,196.320068359375,99.39453125,1,-29.5728759765625,116.1298828125,-276.548828125,2,23.573486328125,117.6123046875,-281.69873046875,3,166.425537109375,196.0634765625,74.536865234375,0,0,0,0,0,0,0,0,0,0,0
1671151185.6348326,0,-114.482421875,196.355224609375,99.3759765625,1,-29.59747314453125,116.1484375,-276.525634765625,2,23.545654296875,117.5830078125,-281.71484375,3,166.431396484375,196.080810546875,74.550537109375,0,0,0,0,0,0,0,0,0,0,0
1671151185.6448276,0,-114.4273681640625,196.326904296875,99.367431640625,1,-29.6051025390625,116.12353515625,-276.5576171875,2,23.51611328125,117.64599609375,-281.73486328125,3,166.4471435546875,196.095458984375,74.527587890625,0,0,0,0,0,0,0,0,0,0,0
1671151185.654902,0,-114.404296875,196.3564453125,99.365234375,1,-29.48089599609375,116.07080078125,-276.54638671875,2,23.5623779296875,117.635498046875,-281.735595703125,3,166.50244140625,196.0693359375,74.626220703125,0,0,0,0,0,0,0,0,0,0,0
1671151185.6648612,0,-114.38525390625,196.287841796875,99.375244140625,1,-29.63494873046875,116.126953125,-276.52880859375,2,23.54296875,117.5869140625,-281.73046875,3,166.431396484375,196.078857421875,74.570556640625,0,0,0,0,0,0,0,0,0,0,0
1671151185.6748242,0,-114.4346923828125,196.323486328125,99.367919921875,1,-29.572021484375,116.13818359375,-276.55615234375,2,23.57275390625,117.628173828125,-281.7353515625,3,166.421875,196.070556640625,74.5390625,0,0,0,0,0,0,0,0,0,0,0
1671151185.6848252,0,-114.4327392578125,196.329345703125,99.3720703125,1,-29.58099365234375,116.1689453125,-276.595458984375,2,23.5687255859375,117.58056640625,-281.7197265625,3,166.4268798828125,196.059326171875,74.54248046875,0,0,0,0,0,0,0,0,0,0,0
1671151185.6948242,0,-114.3966064453125,196.333251953125,99.37060546875,1,-29.61163330078125,116.127197265625,-276.551025390625,2,23.56005859375,117.601318359375,-281.7431640625,3,166.40283203125,196.0537109375,74.53857421875,0,0,0,0,0,0,0,0,0,0,0
1671151185.7048569,0,-114.4130859375,196.408203125,99.36865234375,1,-29.5753173828125,116.1435546875,-276.5625,2,23.568603515625,117.634521484375,-281.72900390625,3,166.455322265625,196.09326171875,74.59716796875,0,0,0,0,0,0,0,0,0,0,0
1671151185.7149036,0,-114.40032958984375,196.306884765625,99.356201171875,1,-29.6270751953125,116.0947265625,-276.52490234375,2,23.5584716796875,117.603759765625,-281.736572265625,3,166.45556640625,196.09814453125,74.591552734375,0,0,0,0,0,0,0,0,0,0,0
1671151185.7248724,0,-114.43115234375,196.335205078125,99.383056640625,1,-29.58538818359375,116.1552734375,-276.52783203125,2,23.5533447265625,117.605712890625,-281.726806640625,3,166.4190673828125,196.049560546875,74.550537109375,0,0,0,0,0,0,0,0,0,0,0
1671151185.7349315,0,-114.4302978515625,196.35302734375,99.382080078125,1,-29.5556640625,116.144287109375,-276.553466796875,2,23.547119140625,117.606201171875,-281.755859375,3,166.4188232421875,196.0625,74.531494140625,0,0,0,0,0,0,0,0,0,0,0
1671151185.7450778,0,-114.45361328125,196.349365234375,99.353515625,1,-29.6173095703125,116.111083984375,-276.51416015625,2,23.5579833984375,117.610107421875,-281.729248046875,3,166.4261474609375,196.038818359375,74.54638671875,0,0,0,0,0,0,0,0,0,0,0
1671151185.7549264,0,-114.3658447265625,196.372314453125,99.3515625,1,-29.5635986328125,116.15673828125,-276.531005859375,2,23.586669921875,117.6298828125,-281.703125,3,166.449951171875,196.08935546875,74.5986328125,0,0,0,0,0,0,0,0,0,0,0
1671151185.7649217,0,-114.382568359375,196.335205078125,99.3388671875,1,-29.60015869140625,116.080810546875,-276.497314453125,2,23.565673828125,117.59228515625,-281.7265625,3,166.458251953125,196.06298828125,74.628173828125,0,0,0,0,0,0,0,0,0,0,0
1671151185.7749345,0,-114.3641357421875,196.34521484375,99.342529296875,1,-29.6142578125,116.142822265625,-276.545654296875,2,23.555419921875,117.58984375,-281.70361328125,3,166.412109375,196.07568359375,74.570556640625,0,0,0,0,0,0,0,0,0,0,0
1671151185.7848847,0,-114.4232177734375,196.3125,99.37548828125,1,-29.55078125,116.1259765625,-276.52783203125,2,23.547607421875,117.62841796875,-281.72412109375,3,166.3958740234375,196.041748046875,74.555908203125,0,0,0,0,0,0,0,0,0,0,0
1671151185.7948916,0,-114.41180419921875,196.27978515625,99.35498046875,1,-29.5784912109375,116.1181640625,-276.510498046875,2,23.6026611328125,117.62158203125,-281.716064453125,3,166.4564208984375,196.0966796875,74.6083984375,0,0,0,0,0,0,0,0,0,0,0
1671151185.8049026,0,-114.432373046875,196.32568359375,99.370361328125,1,-29.63568115234375,116.166015625,-276.541748046875,2,23.5745849609375,117.654296875,-281.7431640625,3,166.4495849609375,196.086669921875,74.62890625,0,0,0,0,0,0,0,0,0,0,0
1671151185.8149335,0,-114.4639892578125,196.32763671875,99.345703125,1,-29.64007568359375,116.1474609375,-276.537353515625,2,23.5736083984375,117.6337890625,-281.738525390625,3,166.437744140625,196.095947265625,74.5947265625,0,0,0,0,0,0,0,0,0,0,0
1671151185.8248875,0,-114.4388427734375,196.3203125,99.345947265625,1,-29.6456298828125,116.0947265625,-276.51416015625,2,23.5557861328125,117.697021484375,-281.662841796875,3,166.4473876953125,196.071533203125,74.58740234375,0,0,0,0,0,0,0,0,0,0,0
1671151185.8349347,0,-114.444091796875,196.333740234375,99.397705078125,1,-29.5902099609375,116.1298828125,-276.52978515625,2,23.5672607421875,117.60986328125,-281.726318359375,3,166.4326171875,196.038330078125,74.52734375,0,0,0,0,0,0,0,0,0,0,0
1671151185.84493,0,-114.47216796875,196.310546875,99.359619140625,1,-29.633544921875,116.14599609375,-276.51220703125,2,23.569091796875,117.6025390625,-281.71435546875,3,166.4149169921875,196.04248046875,74.57177734375,0,0,0,0,0,0,0,0,0,0,0
1671151185.8549418,0,-114.45556640625,196.32275390625,99.395263671875,1,-29.53662109375,116.091796875,-276.51416015625,2,23.568603515625,117.597900390625,-281.702392578125,3,166.42919921875,196.062255859375,74.593505859375,0,0,0,0,0,0,0,0,0,0,0
1671151185.864952,0,-114.45916748046875,196.298828125,99.35986328125,1,-29.6002197265625,116.12548828125,-276.527587890625,2,23.578125,117.602783203125,-281.727783203125,3,166.453369140625,196.0771484375,74.577880859375,0,0,0,0,0,0,0,0,0,0,0
1671151185.8750718,0,-114.44757080078125,196.2958984375,99.359130859375,1,-29.65289306640625,116.165771484375,-276.507080078125,2,23.564453125,117.612060546875,-281.706298828125,3,166.42626953125,196.074462890625,74.55078125,0,0,0,0,0,0,0,0,0,0,0
1671151185.8849611,0,-114.445068359375,196.336181640625,99.3544921875,1,-29.5338134765625,116.114990234375,-276.557861328125,2,23.55615234375,117.609130859375,-281.737548828125,3,166.434326171875,196.052978515625,74.53955078125,0,0,0,0,0,0,0,0,0,0,0
1671151185.8949573,0,-114.410400390625,196.305419921875,99.363525390625,1,-29.63653564453125,116.165771484375,-276.5498046875,2,23.565673828125,117.617919921875,-281.728271484375,3,166.4088134765625,196.05078125,74.537109375,0,0,0,0,0,0,0,0,0,0,0
1671151185.904904,0,-114.3660888671875,196.313720703125,99.358154296875,1,-29.59039306640625,116.160400390625,-276.578125,2,23.5418701171875,117.63134765625,-281.717529296875,3,166.4344482421875,196.075439453125,74.58203125,0,0,0,0,0,0,0,0,0,0,0
1671151185.9149466,0,-114.42010498046875,196.31689453125,99.359375,1,-29.6392822265625,116.1181640625,-276.512451171875,2,23.553955078125,117.610595703125,-281.752685546875,3,166.346435546875,196.120361328125,74.600341796875,0,0,0,0,0,0,0,0,0,0,0
1671151185.9248996,0,-114.42059326171875,196.318603515625,99.332275390625,1,-29.627197265625,116.11669921875,-276.56005859375,2,23.5814208984375,117.621826171875,-281.68798828125,3,166.45458984375,196.091064453125,74.597412109375,0,0,0,0,0,0,0,0,0,0,0
1671151185.9348917,0,-114.34808349609375,196.3173828125,99.380615234375,1,-29.5828857421875,116.123291015625,-276.520263671875,2,23.565185546875,117.598388671875,-281.721923828125,3,166.4332275390625,196.086181640625,74.54150390625,0,0,0,0,0,0,0,0,0,0,0
1671151185.9450228,0,-114.4306640625,196.359619140625,99.352294921875,1,-29.6412353515625,116.137939453125,-276.528076171875,2,23.54736328125,117.6025390625,-281.734619140625,3,166.455322265625,196.097412109375,74.529296875,0,0,0,0,0,0,0,0,0,0,0
1671151185.9549325,0,-114.40924072265625,196.3232421875,99.352294921875,1,-29.6134033203125,116.18994140625,-276.565673828125,2,23.5748291015625,117.6396484375,-281.70947265625,3,166.4716796875,196.087646484375,74.607177734375,0,0,0,0,0,0,0,0,0,0,0
1671151185.9649231,0,-114.44775390625,196.303955078125,99.34716796875,1,-29.64654541015625,116.131591796875,-276.517333984375,2,23.552978515625,117.62841796875,-281.72265625,3,166.482177734375,196.100341796875,74.62548828125,0,0,0,0,0,0,0,0,0,0,0
1671151185.9749339,0,-114.5028076171875,196.37158203125,99.365478515625,1,-29.60662841796875,116.181396484375,-276.556884765625,2,23.56689453125,117.62890625,-281.70361328125,3,166.4111328125,196.04248046875,74.561767578125,0,0,0,0,0,0,0,0,0,0,0
1671151185.9849231,0,-114.42822265625,196.31640625,99.346923828125,1,-29.62078857421875,116.20263671875,-276.564208984375,2,23.55126953125,117.595947265625,-281.720947265625,3,166.399169921875,196.058349609375,74.521240234375,0,0,0,0,0,0,0,0,0,0,0
1671151185.9950473,0,-114.4395751953125,196.31640625,99.373779296875,1,-29.6109619140625,116.10498046875,-276.531494140625,2,23.56982421875,117.632568359375,-281.74169921875,3,166.41943359375,196.0625,74.530517578125,0,0,0,0,0,0,0,0,0,0,0
1671151186.004932,0,-114.458984375,196.32958984375,99.33935546875,1,-29.553466796875,116.103515625,-276.57568359375,2,23.5421142578125,117.63134765625,-281.7265625,3,166.443359375,196.08837890625,74.56298828125,0,0,0,0,0,0,0,0,0,0,0
1671151186.0149262,0,-114.4337158203125,196.3115234375,99.364501953125,1,-29.65264892578125,116.15869140625,-276.530517578125,2,23.5458984375,117.60546875,-281.73388671875,3,166.432373046875,196.08642578125,74.587646484375,0,0,0,0,0,0,0,0,0,0,0
1671151186.0248916,0,-114.4268798828125,196.336181640625,99.357177734375,1,-29.5758056640625,116.158447265625,-276.57275390625,2,23.572509765625,117.632080078125,-281.717529296875,3,166.414794921875,196.0478515625,74.5322265625,0,0,0,0,0,0,0,0,0,0,0
1671151186.0349324,0,-114.455810546875,196.35107421875,99.357666015625,1,-29.52587890625,116.0830078125,-276.581298828125,2,23.561279296875,117.611083984375,-281.71826171875,3,166.4345703125,196.054443359375,74.530517578125,0,0,0,0,0,0,0,0,0,0,0
1671151186.044927,0,-114.501953125,196.373779296875,99.379150390625,1,-29.5948486328125,116.11083984375,-276.54345703125,2,23.5506591796875,117.61669921875,-281.72216796875,3,166.38134765625,196.041748046875,74.551513671875,0,0,0,0,0,0,0,0,0,0,0
1671151186.0549226,0,-114.41156005859375,196.3779296875,99.37890625,1,-29.59210205078125,116.113525390625,-276.541748046875,2,23.560302734375,117.62158203125,-281.6982421875,3,166.4329833984375,196.08642578125,74.566650390625,0,0,0,0,0,0,0,0,0,0,0
1671151186.0649297,0,-114.39337158203125,196.302001953125,99.349365234375,1,-29.656005859375,116.149169921875,-276.517578125,2,23.56298828125,117.595458984375,-281.725341796875,3,166.4365234375,196.095947265625,74.5712890625,0,0,0,0,0,0,0,0,0,0,0
1671151186.0749488,0,-114.4501953125,196.318359375,99.3662109375,1,-29.5574951171875,116.105224609375,-276.567626953125,2,23.5579833984375,117.601318359375,-281.699462890625,3,166.3980712890625,196.048828125,74.53955078125,0,0,0,0,0,0,0,0,0,0,0
1671151186.0849116,0,-114.4107666015625,196.327392578125,99.39306640625,1,-29.56304931640625,116.06787109375,-276.519775390625,2,23.5594482421875,117.6298828125,-281.739501953125,3,166.396728515625,196.056884765625,74.53857421875,0,0,0,0,0,0,0,0,0,0,0
1671151186.094929,0,-114.430908203125,196.347900390625,99.369140625,1,-29.63702392578125,116.1171875,-276.532958984375,2,23.5491943359375,117.612548828125,-281.74755859375,3,166.415283203125,196.05517578125,74.5380859375,0,0,0,0,0,0,0,0,0,0,0
1671151186.1048899,0,-114.404541015625,196.314697265625,99.3642578125,1,-29.64990234375,116.14697265625,-276.545654296875,2,23.549072265625,117.647705078125,-281.71826171875,3,166.4510498046875,196.078125,74.620361328125,0,0,0,0,0,0,0,0,0,0,0
1671151186.1149251,0,-114.4263916015625,196.327392578125,99.357177734375,1,-29.5858154296875,116.10791015625,-276.482177734375,2,23.552001953125,117.604248046875,-281.719970703125,3,166.46533203125,196.07666015625,74.616943359375,0,0,0,0,0,0,0,0,0,0,0
1671151186.1248899,0,-114.412353515625,196.3427734375,99.363525390625,1,-29.59326171875,116.1806640625,-276.5830078125,2,23.558837890625,117.61865234375,-281.701416015625,3,166.39599609375,196.0556640625,74.53125,0,0,0,0,0,0,0,0,0,0,0
1671151186.134925,0,-114.42279052734375,196.34521484375,99.376708984375,1,-29.547607421875,116.136962890625,-276.59228515625,2,23.5615234375,117.614990234375,-281.715087890625,3,166.38720703125,196.013427734375,74.555908203125,0,0,0,0,0,0,0,0,0,0,0
1671151186.1450634,0,-114.4241943359375,196.33447265625,99.360595703125,1,-29.654296875,116.132080078125,-276.513427734375,2,23.566162109375,117.61083984375,-281.73388671875,3,166.458984375,196.06494140625,74.531982421875,0,0,0,0,0,0,0,0,0,0,0
1671151186.154881,0,-114.419677734375,196.330810546875,99.3798828125,1,-29.59771728515625,116.16748046875,-276.53515625,2,23.59521484375,117.6220703125,-281.67919921875,3,166.462890625,196.075927734375,74.5888671875,0,0,0,0,0,0,0,0,0,0,0
1671151186.1649027,0,-114.40380859375,196.3232421875,99.348876953125,1,-29.6282958984375,116.123046875,-276.52685546875,2,23.55810546875,117.61376953125,-281.711669921875,3,166.4619140625,196.093505859375,74.581787109375,0,0,0,0,0,0,0,0,0,0,0
1671151186.1749318,0,-114.39013671875,196.354736328125,99.365478515625,1,-29.6143798828125,116.17578125,-276.576904296875,2,23.5413818359375,117.619140625,-281.728515625,3,166.4854736328125,196.0947265625,74.543701171875,0,0,0,0,0,0,0,0,0,0,0
1671151186.1849341,0,-114.428955078125,196.36474609375,99.3671875,1,-29.60882568359375,116.176513671875,-276.556396484375,2,23.5609130859375,117.61181640625,-281.7373046875,3,166.5032958984375,196.05712890625,74.56396484375,0,0,0,0,0,0,0,0,0,0,0
1671151186.1949432,0,-114.413330078125,196.34765625,99.377197265625,1,-29.63677978515625,116.16943359375,-276.548828125,2,23.562744140625,117.6015625,-281.745849609375,3,166.435791015625,196.072021484375,74.51708984375,0,0,0,0,0,0,0,0,0,0,0
1671151186.204848,0,-114.44342041015625,196.352294921875,99.3583984375,1,-29.644287109375,116.134521484375,-276.559814453125,2,23.549072265625,117.632080078125,-281.705810546875,3,166.4442138671875,196.125244140625,74.589599609375,0,0,0,0,0,0,0,0,0,0,0
1671151186.2148275,0,-114.43145751953125,196.31103515625,99.338623046875,1,-29.66729736328125,116.076171875,-276.504638671875,2,23.548095703125,117.621826171875,-281.73828125,3,166.408935546875,196.154052734375,74.592041015625,0,0,0,0,0,0,0,0,0,0,0
1671151186.2248127,0,-114.3804931640625,196.342529296875,99.368896484375,1,-29.59423828125,116.127685546875,-276.534423828125,2,23.53564453125,117.638916015625,-281.716796875,3,166.494140625,196.11328125,74.525146484375,0,0,0,0,0,0,0,0,0,0,0
1671151186.234821,0,-114.39215087890625,196.2939453125,99.359619140625,1,-29.58660888671875,116.107177734375,-276.570556640625,2,23.55908203125,117.60400390625,-281.7333984375,3,166.466552734375,196.0791015625,74.5556640625,0,0,0,0,0,0,0,0,0,0,0
1671151186.2449043,0,-114.40069580078125,196.34375,99.33349609375,1,-29.537109375,116.078369140625,-276.502685546875,2,23.5732421875,117.624267578125,-281.71435546875,3,166.4915771484375,196.123291015625,74.572998046875,0,0,0,0,0,0,0,0,0,0,0
1671151186.2548952,0,-114.4305419921875,196.344970703125,99.355224609375,1,-29.5445556640625,116.10107421875,-276.531494140625,2,23.5950927734375,117.62158203125,-281.681640625,3,166.47412109375,196.137939453125,74.57568359375,0,0,0,0,0,0,0,0,0,0,0
1671151186.2648692,0,-114.4295654296875,196.3232421875,99.37255859375,1,-29.63079833984375,116.1357421875,-276.5419921875,2,23.5499267578125,117.611572265625,-281.7333984375,3,166.4859619140625,196.10107421875,74.600830078125,0,0,0,0,0,0,0,0,0,0,0
1671151186.2749143,0,-114.38043212890625,196.338623046875,99.39013671875,1,-29.57012939453125,116.156005859375,-276.575439453125,2,23.559814453125,117.604248046875,-281.7001953125,3,166.459716796875,196.066650390625,74.55419921875,0,0,0,0,0,0,0,0,0,0,0
1671151186.284936,0,-114.386474609375,196.3525390625,99.375732421875,1,-29.5457763671875,116.1220703125,-276.567626953125,2,23.55908203125,117.57763671875,-281.7109375,3,166.46240234375,196.083251953125,74.5703125,0,0,0,0,0,0,0,0,0,0,0
1671151186.2948449,0,-114.39306640625,196.33642578125,99.35546875,1,-29.6199951171875,116.107666015625,-276.52099609375,2,23.5628662109375,117.600341796875,-281.717041015625,3,166.421142578125,196.068603515625,74.520263671875,0,0,0,0,0,0,0,0,0,0,0
1671151186.3049078,0,-114.4298095703125,196.323974609375,99.372314453125,1,-29.50830078125,116.10791015625,-276.566162109375,2,23.566650390625,117.64306640625,-281.718994140625,3,166.4483642578125,196.080810546875,74.605224609375,0,0,0,0,0,0,0,0,0,0,0
1671151186.3149228,0,-114.39666748046875,196.351318359375,99.33544921875,1,-29.56610107421875,116.09228515625,-276.537109375,2,23.55810546875,117.59521484375,-281.7109375,3,166.4332275390625,196.08544921875,74.60205078125,0,0,0,0,0,0,0,0,0,0,0
1671151186.32489,0,-114.36865234375,196.36474609375,99.3876953125,1,-29.47900390625,116.125,-276.55908203125,2,23.55859375,117.60400390625,-281.69775390625,3,166.4632568359375,196.095458984375,74.543212890625,0,0,0,0,0,0,0,0,0,0,0
1671151186.334883,0,-114.43170166015625,196.3828125,99.3564453125,1,-29.55804443359375,116.131103515625,-276.555419921875,2,23.5699462890625,117.60400390625,-281.71533203125,3,166.483642578125,196.0966796875,74.56005859375,0,0,0,0,0,0,0,0,0,0,0
1671151186.3449214,0,-114.44036865234375,196.37841796875,99.358642578125,1,-29.6348876953125,116.109619140625,-276.521484375,2,23.5584716796875,117.60888671875,-281.7392578125,3,166.4571533203125,196.08837890625,74.546875,0,0,0,0,0,0,0,0,0,0,0
1671151186.354987,0,-114.3934326171875,196.3642578125,99.371826171875,1,-29.55987548828125,116.0859375,-276.56005859375,2,23.557373046875,117.62890625,-281.7373046875,3,166.48681640625,196.08447265625,74.6005859375,0,0,0,0,0,0,0,0,0,0,0
1671151186.3649225,0,-114.4410400390625,196.296630859375,99.36669921875,1,-29.6361083984375,116.12451171875,-276.507080078125,2,23.548583984375,117.5576171875,-281.7080078125,3,166.4639892578125,196.08740234375,74.596435546875,0,0,0,0,0,0,0,0,0,0,0
1671151186.3748186,0,-114.407958984375,196.38037109375,99.37646484375,1,-29.57861328125,116.155517578125,-276.561279296875,2,23.552978515625,117.634033203125,-281.72412109375,3,166.45751953125,196.078857421875,74.5400390625,0,0,0,0,0,0,0,0,0,0,0
1671151186.3848658,0,-114.37127685546875,196.385986328125,99.35498046875,1,-29.5845947265625,116.14453125,-276.532470703125,2,23.5537109375,117.59375,-281.739501953125,3,166.466064453125,196.101318359375,74.529541015625,0,0,0,0,0,0,0,0,0,0,0
1671151186.3948684,0,-114.394775390625,196.363037109375,99.365966796875,1,-29.6357421875,116.13671875,-276.550048828125,2,23.564697265625,117.60400390625,-281.714599609375,3,166.47900390625,196.094482421875,74.560546875,0,0,0,0,0,0,0,0,0,0,0
1671151186.4048886,0,-114.38818359375,196.33203125,99.3681640625,1,-29.5965576171875,116.138427734375,-276.541015625,2,23.5701904296875,117.612548828125,-281.684326171875,3,166.4979248046875,196.10888671875,74.59814453125,0,0,0,0,0,0,0,0,0,0,0
1671151186.4148483,0,-114.34027099609375,196.37744140625,99.353271484375,1,-29.6500244140625,116.132080078125,-276.529296875,2,23.56640625,117.595703125,-281.705322265625,3,166.515869140625,196.119140625,74.6025390625,0,0,0,0,0,0,0,0,0,0,0
1671151186.4249105,0,-114.3974609375,196.33154296875,99.330322265625,1,-29.56317138671875,116.097412109375,-276.5478515625,2,23.5372314453125,117.620361328125,-281.689453125,3,166.4686279296875,196.074951171875,74.520263671875,0,0,0,0,0,0,0,0,0,0,0
1671151186.434932,0,-114.38763427734375,196.330322265625,99.370361328125,1,-29.5867919921875,116.134765625,-276.558837890625,2,23.5721435546875,117.600341796875,-281.708740234375,3,166.4315185546875,196.0849609375,74.53076171875,0,0,0,0,0,0,0,0,0,0,0
1671151186.4448714,0,-114.4228515625,196.353271484375,99.367431640625,1,-29.64471435546875,116.131103515625,-276.554931640625,2,23.5614013671875,117.591796875,-281.724609375,3,166.440673828125,196.0419921875,74.5537109375,0,0,0,0,0,0,0,0,0,0,0
1671151186.4548674,0,-114.40460205078125,196.398681640625,99.369873046875,1,-29.6060791015625,116.157958984375,-276.541259765625,2,23.55517578125,117.623291015625,-281.718505859375,3,166.478759765625,196.110595703125,74.604248046875,0,0,0,0,0,0,0,0,0,0,0
1671151186.4649646,0,-114.39080810546875,196.325439453125,99.365966796875,1,-29.63232421875,116.11376953125,-276.48583984375,2,23.572265625,117.5810546875,-281.712890625,3,166.464111328125,196.095458984375,74.56689453125,0,0,0,0,0,0,0,0,0,0,0
1671151186.4748938,0,-114.3837890625,196.31494140625,99.380126953125,1,-29.6014404296875,116.13427734375,-276.547607421875,2,23.568115234375,117.629638671875,-281.698974609375,3,166.4207763671875,196.0634765625,74.531005859375,0,0,0,0,0,0,0,0,0,0,0
1671151186.4849343,0,-114.43280029296875,196.34765625,99.40185546875,1,-29.57080078125,116.149169921875,-276.543212890625,2,23.5657958984375,117.598876953125,-281.721435546875,3,166.411865234375,196.04638671875,74.52685546875,0,0,0,0,0,0,0,0,0,0,0
1671151186.494982,0,-114.3814697265625,196.338623046875,99.385986328125,1,-29.6357421875,116.115966796875,-276.50048828125,2,23.551025390625,117.609619140625,-281.75390625,3,166.41650390625,196.044677734375,74.514404296875,0,0,0,0,0,0,0,0,0,0,0
1671151186.5049787,0,-114.3814697265625,196.293212890625,99.3935546875,1,-29.59259033203125,116.156494140625,-276.536376953125,2,23.6029052734375,117.627197265625,-281.687255859375,3,166.4677734375,196.080078125,74.60888671875,0,0,0,0,0,0,0,0,0,0,0
1671151186.5149114,0,-114.4024658203125,196.307373046875,99.351806640625,1,-29.6490478515625,116.125732421875,-276.540283203125,2,23.5753173828125,117.602783203125,-281.716796875,3,166.4576416015625,196.113525390625,74.619140625,0,0,0,0,0,0,0,0,0,0,0
1671151186.5249214,0,-114.4068603515625,196.344482421875,99.359130859375,1,-29.56951904296875,116.156494140625,-276.537353515625,2,23.56640625,117.62353515625,-281.683349609375,3,166.424072265625,196.06201171875,74.55419921875,0,0,0,0,0,0,0,0,0,0,0
1671151186.5349271,0,-114.44061279296875,196.3515625,99.39111328125,1,-29.613525390625,116.160888671875,-276.551513671875,2,23.548583984375,117.615966796875,-281.718505859375,3,166.4151611328125,196.036865234375,74.538818359375,0,0,0,0,0,0,0,0,0,0,0
1671151186.545043,0,-114.35662841796875,196.37646484375,99.382080078125,1,-29.61669921875,116.12451171875,-276.537353515625,2,23.5458984375,117.609130859375,-281.72265625,3,166.427978515625,196.062744140625,74.544677734375,0,0,0,0,0,0,0,0,0,0,0
1671151186.5549264,0,-114.401123046875,196.35400390625,99.384521484375,1,-29.5413818359375,116.121337890625,-276.521240234375,2,23.555419921875,117.620361328125,-281.687744140625,3,166.4591064453125,196.080322265625,74.6044921875,0,0,0,0,0,0,0,0,0,0,0
1671151186.5648792,0,-114.4205322265625,196.30859375,99.33154296875,1,-29.6075439453125,116.09765625,-276.527099609375,2,23.55810546875,117.599365234375,-281.739990234375,3,166.4576416015625,196.088134765625,74.583984375,0,0,0,0,0,0,0,0,0,0,0
1671151186.5749972,0,-114.419189453125,196.34228515625,99.373046875,1,-29.519287109375,116.066162109375,-276.53955078125,2,23.56494140625,117.642822265625,-281.70849609375,3,166.4063720703125,196.06103515625,74.540771484375,0,0,0,0,0,0,0,0,0,0,0
1671151186.5848596,0,-114.4417724609375,196.325439453125,99.360595703125,1,-29.57275390625,116.141845703125,-276.54296875,2,23.5447998046875,117.60498046875,-281.7158203125,3,166.3934326171875,196.054931640625,74.52978515625,0,0,0,0,0,0,0,0,0,0,0
1671151186.5950296,0,-114.37152099609375,196.366943359375,99.372802734375,1,-29.65277099609375,116.151123046875,-276.52490234375,2,23.5750732421875,117.6357421875,-281.73876953125,3,166.4241943359375,196.06494140625,74.556396484375,0,0,0,0,0,0,0,0,0,0,0
1671151186.6049185,0,-114.4547119140625,196.35595703125,99.37841796875,1,-29.56329345703125,116.163818359375,-276.59814453125,2,23.587890625,117.622314453125,-281.70654296875,3,166.46826171875,196.070556640625,74.623046875,0,0,0,0,0,0,0,0,0,0,0
1671151186.6149292,0,-114.45245361328125,196.26513671875,99.39111328125,1,-29.6068115234375,116.09912109375,-276.53857421875,2,23.53955078125,117.599853515625,-281.7509765625,3,166.418701171875,196.055419921875,74.625,0,0,0,0,0,0,0,0,0,0,0
1671151186.624933,0,-114.39892578125,196.370361328125,99.331298828125,1,-29.579345703125,116.110595703125,-276.510498046875,2,23.565673828125,117.60888671875,-281.721435546875,3,166.408935546875,196.043701171875,74.552490234375,0,0,0,0,0,0,0,0,0,0,0
1671151186.6349328,0,-114.3746337890625,196.345458984375,99.37060546875,1,-29.5592041015625,116.129638671875,-276.5751953125,2,23.567138671875,117.63037109375,-281.73291015625,3,166.423095703125,196.036865234375,74.553955078125,0,0,0,0,0,0,0,0,0,0,0
1671151186.645075,0,-114.39495849609375,196.343017578125,99.372314453125,1,-29.6163330078125,116.133544921875,-276.531982421875,2,23.554931640625,117.61083984375,-281.734375,3,166.420166015625,196.05810546875,74.557861328125,0,0,0,0,0,0,0,0,0,0,0
1671151186.6548529,0,-114.3974609375,196.373779296875,99.372314453125,1,-29.56549072265625,116.106201171875,-276.562744140625,2,23.5780029296875,117.64794921875,-281.7392578125,3,166.437255859375,196.0791015625,74.62890625,0,0,0,0,0,0,0,0,0,0,0
1671151186.6651518,0,-114.43017578125,196.335693359375,99.34033203125,1,-29.6292724609375,116.114013671875,-276.548095703125,2,23.544189453125,117.58154296875,-281.740478515625,3,166.438232421875,196.085693359375,74.602294921875,0,0,0,0,0,0,0,0,0,0,0
1671151186.6748707,0,-114.40106201171875,196.36474609375,99.385009765625,1,-29.60894775390625,116.169189453125,-276.556640625,2,23.54638671875,117.63330078125,-281.722900390625,3,166.4085693359375,196.031494140625,74.564697265625,0,0,0,0,0,0,0,0,0,0,0
1671151186.684889,0,-114.39215087890625,196.355224609375,99.378173828125,1,-29.53424072265625,116.14794921875,-276.56494140625,2,23.54736328125,117.62548828125,-281.750732421875,3,166.4127197265625,196.04443359375,74.560791015625,0,0,0,0,0,0,0,0,0,0,0
1671151186.6948364,0,-114.4019775390625,196.319091796875,99.350341796875,1,-29.5880126953125,116.116943359375,-276.52734375,2,23.5474853515625,117.599609375,-281.718994140625,3,166.4161376953125,196.03125,74.564208984375,0,0,0,0,0,0,0,0,0,0,0
1671151186.704812,0,-114.3868408203125,196.336669921875,99.392822265625,1,-29.55743408203125,116.09814453125,-276.528076171875,2,23.5489501953125,117.5986328125,-281.719482421875,3,166.430419921875,196.069091796875,74.591796875,0,0,0,0,0,0,0,0,0,0,0
1671151186.7148101,0,-114.387939453125,196.333984375,99.35205078125,1,-29.6685791015625,116.136962890625,-276.5205078125,2,23.561279296875,117.59326171875,-281.72216796875,3,166.435302734375,196.057861328125,74.597900390625,0,0,0,0,0,0,0,0,0,0,0
1671151186.7248905,0,-114.3690185546875,196.38134765625,99.356689453125,1,-29.57257080078125,116.15966796875,-276.5341796875,2,23.5567626953125,117.635009765625,-281.736328125,3,166.427001953125,196.058349609375,74.534423828125,0,0,0,0,0,0,0,0,0,0,0
1671151186.734892,0,-114.4007568359375,196.357666015625,99.37060546875,1,-29.566162109375,116.121337890625,-276.53857421875,2,23.578369140625,117.599609375,-281.729736328125,3,166.422119140625,196.05859375,74.53173828125,0,0,0,0,0,0,0,0,0,0,0
1671151186.7448359,0,-114.38818359375,196.3212890625,99.387939453125,1,-29.67083740234375,116.128173828125,-276.5263671875,2,23.573486328125,117.591552734375,-281.718994140625,3,166.416259765625,196.039794921875,74.538330078125,0,0,0,0,0,0,0,0,0,0,0
1671151186.7549605,0,-114.410888671875,196.372314453125,99.397705078125,1,-29.546630859375,116.091796875,-276.54345703125,2,23.58251953125,117.620849609375,-281.706298828125,3,166.42236328125,196.08349609375,74.57080078125,0,0,0,0,0,0,0,0,0,0,0
1671151186.7648914,0,-114.39599609375,196.291748046875,99.37060546875,1,-29.61962890625,116.083984375,-276.5380859375,2,23.554443359375,117.61767578125,-281.739990234375,3,166.411865234375,196.1044921875,74.600341796875,0,0,0,0,0,0,0,0,0,0,0
1671151186.7749424,0,-114.41046142578125,196.3134765625,99.37890625,1,-29.610595703125,116.1865234375,-276.56103515625,2,23.5606689453125,117.61865234375,-281.71630859375,3,166.392822265625,196.04541015625,74.53076171875,0,0,0,0,0,0,0,0,0,0,0
1671151186.7848976,0,-114.4029541015625,196.364990234375,99.392333984375,1,-29.5743408203125,116.14697265625,-276.528076171875,2,23.56005859375,117.61669921875,-281.718994140625,3,166.3975830078125,196.049560546875,74.55029296875,0,0,0,0,0,0,0,0,0,0,0
1671151186.795028,0,-114.31072998046875,196.425048828125,99.35498046875,1,-29.61004638671875,116.1376953125,-276.5419921875,2,23.560302734375,117.62353515625,-281.72412109375,3,166.404541015625,196.0546875,74.548583984375,0,0,0,0,0,0,0,0,0,0,0
1671151186.804838,0,-114.32293701171875,196.391357421875,99.3662109375,1,-29.5831298828125,116.145751953125,-276.55712890625,2,23.55615234375,117.600830078125,-281.6962890625,3,166.432373046875,196.07666015625,74.590087890625,0,0,0,0,0,0,0,0,0,0,0
1671151186.8147888,0,-114.34765625,196.34228515625,99.353271484375,1,-29.6407470703125,116.103515625,-276.529541015625,2,23.526611328125,117.60791015625,-281.754638671875,3,166.440673828125,196.072021484375,74.589599609375,0,0,0,0,0,0,0,0,0,0,0
1671151186.8248105,0,-114.35870361328125,196.432373046875,99.359619140625,1,-29.55718994140625,116.136474609375,-276.556396484375,2,23.52880859375,117.6708984375,-281.70361328125,3,166.3878173828125,196.0673828125,74.526123046875,0,0,0,0,0,0,0,0,0,0,0
1671151186.8348117,0,-114.3455810546875,196.391845703125,99.346923828125,1,-29.57373046875,116.176025390625,-276.59716796875,2,23.54833984375,117.60546875,-281.729248046875,3,166.39599609375,196.04638671875,74.55615234375,0,0,0,0,0,0,0,0,0,0,0
1671151186.8448148,0,-114.38287353515625,196.374755859375,99.3583984375,1,-29.5877685546875,116.1220703125,-276.539794921875,2,23.570556640625,117.59716796875,-281.70458984375,3,166.4129638671875,196.0322265625,74.55712890625,0,0,0,0,0,0,0,0,0,0,0
1671151186.854828,0,-114.4632568359375,196.32421875,99.343994140625,1,-29.5484619140625,116.09912109375,-276.571533203125,2,23.57666015625,117.63134765625,-281.735595703125,3,166.4349365234375,196.091064453125,74.5869140625,0,0,0,0,0,0,0,0,0,0,0
1671151186.8648596,0,-114.421875,196.2802734375,99.341552734375,1,-29.5849609375,116.085205078125,-276.521484375,2,23.558349609375,117.621826171875,-281.727294921875,3,166.45751953125,196.08056640625,74.60693359375,0,0,0,0,0,0,0,0,0,0,0
1671151186.8748593,0,-114.322265625,196.355712890625,99.343994140625,1,-29.5455322265625,116.135498046875,-276.562744140625,2,23.5645751953125,117.65966796875,-281.716796875,3,166.4080810546875,196.0341796875,74.563720703125,0,0,0,0,0,0,0,0,0,0,0
1671151186.8848662,0,-114.37554931640625,196.35400390625,99.36962890625,1,-29.57080078125,116.141357421875,-276.584228515625,2,23.55615234375,117.5966796875,-281.730224609375,3,166.421875,196.02587890625,74.54296875,0,0,0,0,0,0,0,0,0,0,0
1671151186.894843,0,-114.38232421875,196.34765625,99.354248046875,1,-29.68408203125,116.142578125,-276.543701171875,2,23.5555419921875,117.61767578125,-281.74755859375,3,166.37353515625,196.04296875,74.552001953125,0,0,0,0,0,0,0,0,0,0,0
1671151186.9048102,0,-114.33905029296875,196.39208984375,99.3544921875,1,-29.56842041015625,116.094482421875,-276.563232421875,2,23.552734375,117.59130859375,-281.7138671875,3,166.4097900390625,196.067626953125,74.60595703125,0,0,0,0,0,0,0,0,0,0,0
1671151186.9148293,0,-114.3883056640625,196.364501953125,99.342041015625,1,-29.6798095703125,116.134521484375,-276.552490234375,2,23.560546875,117.600830078125,-281.726806640625,3,166.4384765625,196.0859375,74.588623046875,0,0,0,0,0,0,0,0,0,0,0
1671151186.924866,0,-114.367919921875,196.356689453125,99.361328125,1,-29.5418701171875,116.11767578125,-276.558349609375,2,23.5645751953125,117.6181640625,-281.685302734375,3,166.4005126953125,196.04638671875,74.555419921875,0,0,0,0,0,0,0,0,0,0,0
1671151186.935006,0,-114.29583740234375,196.38671875,99.39599609375,1,-29.5667724609375,116.10546875,-276.52490234375,2,23.55517578125,117.615478515625,-281.7353515625,3,166.4058837890625,196.037353515625,74.548828125,0,0,0,0,0,0,0,0,0,0,0
1671151186.944813,0,-114.3914794921875,196.3876953125,99.378662109375,1,-29.63916015625,116.145263671875,-276.55029296875,2,23.548583984375,117.5986328125,-281.7333984375,3,166.3984375,196.04296875,74.552734375,0,0,0,0,0,0,0,0,0,0,0
1671151186.9549658,0,-114.3682861328125,196.353759765625,99.370849609375,1,-29.5921630859375,116.131591796875,-276.555908203125,2,23.55908203125,117.605224609375,-281.73046875,3,166.444091796875,196.085693359375,74.58056640625,0,0,0,0,0,0,0,0,0,0,0
1671151186.964822,0,-114.37689208984375,196.33447265625,99.3701171875,1,-29.649658203125,116.13623046875,-276.532958984375,2,23.5550537109375,117.591064453125,-281.718017578125,3,166.44873046875,196.07958984375,74.6123046875,0,0,0,0,0,0,0,0,0,0,0
1671151186.974825,0,-114.374267578125,196.34765625,99.345458984375,1,-29.51123046875,116.0615234375,-276.543212890625,2,23.559326171875,117.630615234375,-281.685302734375,3,166.41796875,196.04150390625,74.55322265625,0,0,0,0,0,0,0,0,0,0,0
1671151186.984826,0,-114.38763427734375,196.3515625,99.385986328125,1,-29.4945068359375,116.08349609375,-276.600830078125,2,23.564697265625,117.598876953125,-281.722412109375,3,166.4075927734375,196.020751953125,74.56103515625,0,0,0,0,0,0,0,0,0,0,0
1671151186.9948745,0,-114.3790283203125,196.365234375,99.35546875,1,-29.6278076171875,116.123046875,-276.548583984375,2,23.5166015625,117.60693359375,-281.763671875,3,166.407958984375,196.0244140625,74.551513671875,0,0,0,0,0,0,0,0,0,0,0
1671151187.0048747,0,-114.34735107421875,196.405517578125,99.341796875,1,-29.6356201171875,116.143798828125,-276.5859375,2,23.54541015625,117.624755859375,-281.706787109375,3,166.45361328125,196.081298828125,74.624267578125,0,0,0,0,0,0,0,0,0,0,0
1671151187.014857,0,-114.35272216796875,196.410400390625,99.346435546875,1,-29.62530517578125,116.103759765625,-276.525390625,2,23.56640625,117.623046875,-281.731201171875,3,166.440185546875,196.076416015625,74.594970703125,0,0,0,0,0,0,0,0,0,0,0
1671151187.0248675,0,-114.37371826171875,196.37255859375,99.37158203125,1,-29.60943603515625,116.178955078125,-276.574462890625,2,23.585693359375,117.636962890625,-281.73681640625,3,166.407958984375,196.047119140625,74.55859375,0,0,0,0,0,0,0,0,0,0,0
1671151187.034871,0,-114.4156494140625,196.375732421875,99.3779296875,1,-29.6319580078125,116.1259765625,-276.56201171875,2,23.5611572265625,117.59033203125,-281.722900390625,3,166.382568359375,196.010986328125,74.568359375,0,0,0,0,0,0,0,0,0,0,0
1671151187.0448537,0,-114.40203857421875,196.376220703125,99.359375,1,-29.6090087890625,116.10791015625,-276.5517578125,2,23.548095703125,117.615234375,-281.73193359375,3,166.432373046875,196.055908203125,74.538330078125,0,0,0,0,0,0,0,0,0,0,0
1671151187.0548615,0,-114.383056640625,196.3603515625,99.361083984375,1,-29.50018310546875,116.07861328125,-276.552734375,2,23.594482421875,117.6435546875,-281.706787109375,3,166.4443359375,196.070068359375,74.5810546875,0,0,0,0,0,0,0,0,0,0,0
1671151187.0648599,0,-114.39013671875,196.3125,99.370361328125,1,-29.67083740234375,116.144287109375,-276.52099609375,2,23.575439453125,117.6240234375,-281.733154296875,3,166.447509765625,196.071044921875,74.5947265625,0,0,0,0,0,0,0,0,0,0,0
1671151187.074867,0,-114.415283203125,196.3251953125,99.373779296875,1,-29.5946044921875,116.154052734375,-276.561279296875,2,23.5894775390625,117.637939453125,-281.70947265625,3,166.411376953125,196.042724609375,74.56201171875,0,0,0,0,0,0,0,0,0,0,0
1671151187.0848932,0,-114.41314697265625,196.293212890625,99.38916015625,1,-29.5501708984375,116.109619140625,-276.554443359375,2,23.553466796875,117.579345703125,-281.726806640625,3,166.4310302734375,196.043701171875,74.5576171875,0,0,0,0,0,0,0,0,0,0,0
1671151187.094922,0,-114.38134765625,196.3564453125,99.379638671875,1,-29.6368408203125,116.1298828125,-276.52587890625,2,23.5611572265625,117.6044921875,-281.733154296875,3,166.4207763671875,196.04248046875,74.53271484375,0,0,0,0,0,0,0,0,0,0,0
1671151187.1048899,0,-114.37933349609375,196.38427734375,99.3515625,1,-29.59063720703125,116.152587890625,-276.557861328125,2,23.5772705078125,117.64501953125,-281.72021484375,3,166.47998046875,196.091796875,74.615234375,0,0,0,0,0,0,0,0,0,0,0
1671151187.1148918,0,-114.3590087890625,196.3486328125,99.336181640625,1,-29.641845703125,116.1240234375,-276.543701171875,2,23.562255859375,117.607421875,-281.710205078125,3,166.46826171875,196.071044921875,74.612060546875,0,0,0,0,0,0,0,0,0,0,0
1671151187.1248398,0,-114.3309326171875,196.349365234375,99.353515625,1,-29.5614013671875,116.1337890625,-276.565185546875,2,23.5419921875,117.6181640625,-281.7001953125,3,166.4205322265625,196.034423828125,74.5712890625,0,0,0,0,0,0,0,0,0,0,0
1671151187.1348372,0,-114.33758544921875,196.402099609375,99.368896484375,1,-29.5712890625,116.129150390625,-276.560791015625,2,23.545654296875,117.580810546875,-281.72998046875,3,166.4117431640625,196.021240234375,74.5341796875,0,0,0,0,0,0,0,0,0,0,0
1671151187.144809,0,-114.44586181640625,196.330322265625,99.3779296875,1,-29.6341552734375,116.154541015625,-276.539306640625,2,23.55517578125,117.605712890625,-281.730712890625,3,166.430908203125,196.046875,74.530029296875,0,0,0,0,0,0,0,0,0,0,0
1671151187.1548517,0,-114.38031005859375,196.390625,99.338134765625,1,-29.613037109375,116.141357421875,-276.55517578125,2,23.57568359375,117.6103515625,-281.70703125,3,166.45263671875,196.09375,74.5732421875,0,0,0,0,0,0,0,0,0,0,0
1671151187.1648238,0,-114.33465576171875,196.37548828125,99.315673828125,1,-29.642333984375,116.159423828125,-276.52587890625,2,23.5557861328125,117.61572265625,-281.7216796875,3,166.456298828125,196.068359375,74.615478515625,0,0,0,0,0,0,0,0,0,0,0
1671151187.174846,0,-114.30914306640625,196.40087890625,99.345703125,1,-29.586181640625,116.15380859375,-276.540283203125,2,23.5496826171875,117.602294921875,-281.70849609375,3,166.4072265625,196.051025390625,74.53662109375,0,0,0,0,0,0,0,0,0,0,0
1671151187.1848304,0,-114.30853271484375,196.437255859375,99.35888671875,1,-29.56561279296875,116.1162109375,-276.54052734375,2,23.5643310546875,117.60107421875,-281.709716796875,3,166.39892578125,196.047607421875,74.553955078125,0,0,0,0,0,0,0,0,0,0,0
1671151187.1948304,0,-114.37469482421875,196.410400390625,99.3623046875,1,-29.6036376953125,116.094482421875,-276.4912109375,2,23.57666015625,117.582275390625,-281.72509765625,3,166.419677734375,196.04541015625,74.55078125,0,0,0,0,0,0,0,0,0,0,0
1671151187.204822,0,-114.35003662109375,196.3740234375,99.322998046875,1,-29.59442138671875,116.12353515625,-276.544677734375,2,23.58056640625,117.630859375,-281.713134765625,3,166.4111328125,196.094970703125,74.580810546875,0,0,0,0,0,0,0,0,0,0,0
1671151187.2148404,0,-114.3544921875,196.35546875,99.312744140625,1,-29.6561279296875,116.152587890625,-276.536865234375,2,23.54052734375,117.6025390625,-281.747314453125,3,166.422119140625,196.070068359375,74.591064453125,0,0,0,0,0,0,0,0,0,0,0
1671151187.2248263,0,-114.3548583984375,196.386962890625,99.361328125,1,-29.5732421875,116.13916015625,-276.5556640625,2,23.5611572265625,117.61865234375,-281.73779296875,3,166.38134765625,196.029052734375,74.553466796875,0,0,0,0,0,0,0,0,0,0,0
1671151187.2348444,0,-114.39495849609375,196.3857421875,99.3681640625,1,-29.61474609375,116.155029296875,-276.550537109375,2,23.57958984375,117.607177734375,-281.724609375,3,166.3656005859375,196.041748046875,74.53125,0,0,0,0,0,0,0,0,0,0,0
1671151187.2448137,0,-114.391357421875,196.3935546875,99.35546875,1,-29.63385009765625,116.141845703125,-276.528564453125,2,23.547607421875,117.617431640625,-281.71728515625,3,166.4139404296875,196.0341796875,74.53955078125,0.0,0.0,0.0,0.0,-0.0011111111111111111,-0.0033333333333333335,0.0011111111111111111,-0.17,1.83,9.6,11.761217056
1671151187.2548285,0,-114.40472412109375,196.34375,99.363037109375,1,-29.529052734375,116.091552734375,-276.523193359375,2,23.569580078125,117.596923828125,-281.6904296875,3,166.4345703125,196.0634765625,74.62060546875,0.0,0.0,0.0,0.0,-0.0011111111111111111,-0.0033333333333333335,0.0011111111111111111,-0.17,1.83,9.6,11.761217056
1671151187.2647886,0,-114.38037109375,196.3603515625,99.357421875,1,-29.6226806640625,116.08984375,-276.54248046875,2,23.565673828125,117.62255859375,-281.740234375,3,166.458251953125,196.09619140625,74.613037109375,0.0,0.0,0.0,0.0,-0.0011111111111111111,-0.0033333333333333335,0.0011111111111111111,-0.17,1.83,9.6,11.761217056
1671151187.2748609,0,-114.38299560546875,196.388427734375,99.367919921875,1,-29.5596923828125,116.115234375,-276.58349609375,2,23.55712890625,117.650634765625,-281.722412109375,3,166.417724609375,196.04736328125,74.538330078125,0.0,0.0,0.0,0.0,-0.0011111111111111111,-0.0033333333333333335,0.0011111111111111111,-0.17,1.83,9.6,11.761217056
1671151187.2848797,0,-114.39874267578125,196.392822265625,99.371337890625,1,-29.5035400390625,116.107666015625,-276.59912109375,2,23.5841064453125,117.59765625,-281.698486328125,3,166.42529296875,196.0419921875,74.542236328125,0.0,0.0,0.0,0.0,-0.0011111111111111111,-0.0033333333333333335,0.0011111111111111111,-0.17,1.83,9.6,11.761217056
1671151187.2948217,0,-114.36279296875,196.414306640625,99.370849609375,1,-29.64215087890625,116.125,-276.52978515625,2,23.549560546875,117.620849609375,-281.740234375,3,166.4058837890625,196.0341796875,74.56689453125,0.0,0.0,0.0,0.0,0.0022222222222222222,-0.0022222222222222222,-0.0011111111111111111,-0.17,1.84,9.62,11.780978272
1671151187.3048658,0,-114.37567138671875,196.3837890625,99.33349609375,1,-29.5994873046875,116.107177734375,-276.565673828125,2,23.5460205078125,117.632080078125,-281.697998046875,3,166.4542236328125,196.076416015625,74.586181640625,0.0,0.0,0.0,0.0,0.0022222222222222222,-0.0022222222222222222,-0.0011111111111111111,-0.17,1.84,9.62,11.780978272
1671151187.3149176,0,-114.392822265625,196.347412109375,99.3291015625,1,-29.6392822265625,116.135009765625,-276.556640625,2,23.5477294921875,117.620361328125,-281.74072265625,3,166.435546875,196.093017578125,74.5712890625,0.0,0.0,0.0,0.0,0.0022222222222222222,-0.0022222222222222222,-0.0011111111111111111,-0.17,1.84,9.62,11.780978272
1671151187.3248842,0,-114.37469482421875,196.347412109375,99.39111328125,1,-29.55450439453125,116.096923828125,-276.535400390625,2,23.577880859375,117.613525390625,-281.677001953125,3,166.41748046875,196.055908203125,74.567138671875,0.0,0.0,0.0,0.0,0.0022222222222222222,-0.0022222222222222222,-0.0011111111111111111,-0.17,1.84,9.62,11.780978272
1671151187.3348346,0,-114.39508056640625,196.3603515625,99.37548828125,1,-29.6031494140625,116.13525390625,-276.567626953125,2,23.56689453125,117.601318359375,-281.706298828125,3,166.410400390625,196.050537109375,74.556640625,0.0,0.0,0.0,0.0,0.0,-0.0,-0.0,-0.16,1.84,9.63,11.7743912
1671151187.3448088,0,-114.44122314453125,196.370361328125,99.388671875,1,-29.6573486328125,116.130859375,-276.498291015625,2,23.560546875,117.602294921875,-281.71142578125,3,166.43896484375,196.04443359375,74.55126953125,0.0,0.0,0.0,0.0,0.0,-0.0,-0.0,-0.16,1.84,9.63,11.7743912
1671151187.3549058,0,-114.39373779296875,196.3818359375,99.34423828125,1,-29.62554931640625,116.152099609375,-276.555908203125,2,23.5599365234375,117.62744140625,-281.71044921875,3,166.420166015625,196.061279296875,74.600341796875,0.0,0.0,0.0,0.0,0.0,-0.0,-0.0,-0.16,1.84,9.63,11.7743912
1671151187.3648815,0,-114.33941650390625,196.390380859375,99.333251953125,1,-29.6387939453125,116.13671875,-276.51318359375,2,23.5469970703125,117.59423828125,-281.729736328125,3,166.4383544921875,196.0576171875,74.60009765625,0.0,0.0,0.0,0.0,0.0,-0.0,-0.0,-0.16,1.84,9.63,11.7743912
1671151187.3749192,0,-114.44635009765625,196.388916015625,99.37109375,1,-29.5955810546875,116.138671875,-276.52490234375,2,23.57861328125,117.632080078125,-281.690673828125,3,166.4163818359375,196.04931640625,74.55517578125,0.0,0.0,0.0,0.0,0.0,-0.0,-0.0,-0.16,1.84,9.63,11.7743912
1671151187.3848953,0,-114.4046630859375,196.35693359375,99.354248046875,1,-29.5845947265625,116.12890625,-276.563720703125,2,23.5546875,117.6162109375,-281.723876953125,3,166.4150390625,196.05810546875,74.52734375,0.0,0.0,0.0,0.0,0.0,-0.0,-0.0,-0.16,1.84,9.63,11.7743912
1671151187.3950148,0,-114.41204833984375,196.390869140625,99.360595703125,1,-29.64947509765625,116.140625,-276.56103515625,2,23.552978515625,117.6015625,-281.72900390625,3,166.416748046875,196.051025390625,74.5478515625,0.0,0.0,0.0,0.0,0.0022222222222222222,0.0011111111111111111,-0.0,-0.17,1.82,9.6,11.7743912
1671151187.4048338,0,-114.36456298828125,196.41455078125,99.37451171875,1,-29.59228515625,116.158447265625,-276.54931640625,2,23.5487060546875,117.610595703125,-281.7041015625,3,166.4442138671875,196.07568359375,74.60888671875,0.0,0.0,0.0,0.0,0.0022222222222222222,0.0011111111111111111,-0.0,-0.17,1.82,9.6,11.7743912
1671151187.4148161,0,-114.380859375,196.3603515625,99.3359375,1,-29.640869140625,116.15283203125,-276.543701171875,2,23.552490234375,117.602294921875,-281.7255859375,3,166.4249267578125,196.060791015625,74.571533203125,0.0,0.0,0.0,0.0,0.0022222222222222222,0.0011111111111111111,-0.0,-0.17,1.82,9.6,11.7743912
1671151187.4248378,0,-114.31195068359375,196.401611328125,99.356689453125,1,-29.52325439453125,116.051513671875,-276.581787109375,2,23.5506591796875,117.6025390625,-281.70166015625,3,166.4229736328125,196.0673828125,74.537109375,0.0,0.0,0.0,0.0,0.0022222222222222222,0.0011111111111111111,-0.0,-0.17,1.82,9.6,11.7743912
1671151187.4348364,0,-114.32098388671875,196.370849609375,99.354248046875,1,-29.61151123046875,116.14111328125,-276.539794921875,2,23.557861328125,117.580810546875,-281.736572265625,3,166.4007568359375,196.03857421875,74.529296875,0.0,0.0,0.0,0.0,0.0011111111111111111,0.0011111111111111111,0.0011111111111111111,-0.18,1.82,9.6,11.777684736000001
1671151187.4448094,0,-114.3485107421875,196.376220703125,99.351806640625,1,-29.66943359375,116.128173828125,-276.515380859375,2,23.53857421875,117.60595703125,-281.7470703125,3,166.40478515625,196.036376953125,74.546630859375,0.0,0.0,0.0,0.0,0.0011111111111111111,0.0011111111111111111,0.0011111111111111111,-0.18,1.82,9.6,11.777684736000001
1671151187.4548433,0,-114.36737060546875,196.4052734375,99.3251953125,1,-29.55621337890625,116.127685546875,-276.551513671875,2,23.57763671875,117.681640625,-281.7294921875,3,166.4425048828125,196.078857421875,74.576904296875,0.0,0.0,0.0,0.0,0.0011111111111111111,0.0011111111111111111,0.0011111111111111111,-0.18,1.82,9.6,11.777684736000001
1671151187.4648607,0,-114.33489990234375,196.36669921875,99.3515625,1,-29.60198974609375,116.10693359375,-276.509521484375,2,23.54931640625,117.611328125,-281.734130859375,3,166.414794921875,196.077880859375,74.583984375,0.0,0.0,0.0,0.0,0.0011111111111111111,0.0011111111111111111,0.0011111111111111111,-0.18,1.82,9.6,11.777684736000001
1671151187.4748864,0,-114.39459228515625,196.348876953125,99.366455078125,1,-29.52825927734375,116.103271484375,-276.569091796875,2,23.55224609375,117.604248046875,-281.715087890625,3,166.40283203125,196.057861328125,74.529541015625,0.0,0.0,0.0,0.0,0.0011111111111111111,0.0011111111111111111,0.0011111111111111111,-0.18,1.82,9.6,11.777684736000001
1671151187.4848273,0,-114.40521240234375,196.37646484375,99.373046875,1,-29.5709228515625,116.106201171875,-276.569091796875,2,23.556396484375,117.606201171875,-281.71533203125,3,166.3966064453125,196.04638671875,74.540283203125,0.0,0.0,0.0,0.0,-0.0011111111111111111,0.0022222222222222222,-0.0,-0.18,1.82,9.61,11.780978272
1671151187.4948242,0,-114.39495849609375,196.4091796875,99.368896484375,1,-29.6077880859375,116.117919921875,-276.53857421875,2,23.565673828125,117.59326171875,-281.722900390625,3,166.4163818359375,196.0595703125,74.5478515625,0.0,0.0,0.0,0.0,-0.0011111111111111111,0.0022222222222222222,-0.0,-0.18,1.82,9.61,11.780978272
1671151187.5048666,0,-114.27935791015625,196.44384765625,99.36376953125,1,-29.5135498046875,116.09228515625,-276.552734375,2,23.563720703125,117.620361328125,-281.73828125,3,166.422607421875,196.061279296875,74.59375,0.0,0.0,0.0,0.0,-0.0011111111111111111,0.0022222222222222222,-0.0,-0.18,1.82,9.61,11.780978272
1671151187.5149195,0,-114.36676025390625,196.367919921875,99.351806640625,1,-29.6241455078125,116.125,-276.53173828125,2,23.5511474609375,117.6328125,-281.748046875,3,166.416748046875,196.0771484375,74.593505859375,0.0,0.0,0.0,0.0,-0.0011111111111111111,0.0022222222222222222,-0.0,-0.18,1.82,9.61,11.780978272
1671151187.524887,0,-114.38104248046875,196.41015625,99.355712890625,1,-29.5860595703125,116.134765625,-276.564453125,2,23.5634765625,117.6328125,-281.7158203125,3,166.418701171875,196.038330078125,74.572509765625,0.0,0.0,0.0,0.0,-0.0011111111111111111,0.0022222222222222222,-0.0,-0.18,1.82,9.61,11.780978272
1671151187.5349863,0,-114.31689453125,196.403076171875,99.337158203125,1,-29.55718994140625,116.106201171875,-276.553955078125,2,23.552490234375,117.61083984375,-281.725341796875,3,166.41650390625,196.041748046875,74.533447265625,0.0,0.0,0.0,0.0,0.0,0.005555555555555556,0.0011111111111111111,-0.18,1.82,9.63,11.780978272
1671151187.545044,0,-114.3223876953125,196.47216796875,99.350830078125,1,-29.62420654296875,116.1259765625,-276.523193359375,2,23.5577392578125,117.597900390625,-281.7236328125,3,166.41552734375,196.05029296875,74.567138671875,0.0,0.0,0.0,0.0,0.0,0.005555555555555556,0.0011111111111111111,-0.18,1.82,9.63,11.780978272
1671151187.5549228,0,-114.33905029296875,196.371337890625,99.368408203125,1,-29.557373046875,116.12451171875,-276.54052734375,2,23.5615234375,117.62060546875,-281.701416015625,3,166.4505615234375,196.09814453125,74.6201171875,0.0,0.0,0.0,0.0,0.0,0.005555555555555556,0.0011111111111111111,-0.18,1.82,9.63,11.780978272
1671151187.5649295,0,-114.39593505859375,196.3408203125,99.3515625,1,-29.60198974609375,116.090576171875,-276.52197265625,2,23.5555419921875,117.58642578125,-281.708984375,3,166.4395751953125,196.08203125,74.59228515625,0.0,0.0,0.0,0.0,0.0,0.005555555555555556,0.0011111111111111111,-0.18,1.82,9.63,11.780978272
1671151187.5748858,0,-114.41473388671875,196.377685546875,99.374267578125,1,-29.59918212890625,116.15966796875,-276.52880859375,2,23.5367431640625,117.628173828125,-281.7216796875,3,166.4320068359375,196.049072265625,74.55712890625,0.0,0.0,0.0,0.0,0.0,0.005555555555555556,0.0011111111111111111,-0.18,1.82,9.63,11.780978272
1671151187.5848925,0,-114.41259765625,196.402099609375,99.37109375,1,-29.560546875,116.079833984375,-276.50146484375,2,23.5255126953125,117.621337890625,-281.733642578125,3,166.406005859375,196.040283203125,74.537841796875,0.0,0.0,0.0,0.0,0.0,0.005555555555555556,0.0011111111111111111,-0.18,1.82,9.63,11.780978272
1671151187.5950053,0,-114.3966064453125,196.347900390625,99.3564453125,1,-29.639404296875,116.113525390625,-276.5166015625,2,23.549560546875,117.5849609375,-281.72509765625,3,166.41943359375,196.041748046875,74.577880859375,0.0,0.0,0.0,0.0,-0.0022222222222222222,0.0033333333333333335,0.0011111111111111111,-0.19,1.82,9.62,11.771097664000001
1671151187.6048868,0,-114.3970947265625,196.3369140625,99.366455078125,1,-29.588623046875,116.120361328125,-276.595703125,2,23.5599365234375,117.588134765625,-281.712646484375,3,166.4512939453125,196.080078125,74.61865234375,0.0,0.0,0.0,0.0,-0.0022222222222222222,0.0033333333333333335,0.0011111111111111111,-0.19,1.82,9.62,11.771097664000001
1671151187.6148427,0,-114.3502197265625,196.360107421875,99.350830078125,1,-29.636474609375,116.09765625,-276.520751953125,2,23.541015625,117.616943359375,-281.750732421875,3,166.3829345703125,196.127685546875,74.614990234375,0.0,0.0,0.0,0.0,-0.0022222222222222222,0.0033333333333333335,0.0011111111111111111,-0.19,1.82,9.62,11.771097664000001
1671151187.6248605,0,-114.378173828125,196.373046875,99.373046875,1,-29.62017822265625,116.163330078125,-276.5810546875,2,23.5391845703125,117.640625,-281.7470703125,3,166.411376953125,196.0576171875,74.54052734375,0.0,0.0,0.0,0.0,-0.0022222222222222222,0.0033333333333333335,0.0011111111111111111,-0.19,1.82,9.62,11.771097664000001
1671151187.6348605,0,-114.35186767578125,196.392578125,99.3828125,1,-29.564453125,116.132568359375,-276.5654296875,2,23.5662841796875,117.611328125,-281.7392578125,3,166.41943359375,196.05126953125,74.557861328125,0.0,0.0,0.0,0.0,0.0011111111111111111,0.0033333333333333335,-0.0022222222222222222,-0.18,1.82,9.65,11.7743912
1671151187.6447904,0,-114.402587890625,196.391845703125,99.376220703125,1,-29.62957763671875,116.11279296875,-276.52197265625,2,23.54931640625,117.576416015625,-281.74755859375,3,166.421875,196.025634765625,74.568359375,0.0,0.0,0.0,0.0,0.0011111111111111111,0.0033333333333333335,-0.0022222222222222222,-0.18,1.82,9.65,11.7743912
1671151187.6548417,0,-114.417236328125,196.40185546875,99.3447265625,1,-29.5941162109375,116.131103515625,-276.563232421875,2,23.5718994140625,117.582763671875,-281.693603515625,3,166.451904296875,196.083740234375,74.603515625,0.0,0.0,0.0,0.0,0.0011111111111111111,0.0033333333333333335,-0.0022222222222222222,-0.18,1.82,9.65,11.7743912
1671151187.664828,0,-114.39306640625,196.3515625,99.34814453125,1,-29.6278076171875,116.099365234375,-276.51953125,2,23.5516357421875,117.606689453125,-281.73779296875,3,166.4207763671875,196.094482421875,74.56640625,0.0,0.0,0.0,0.0,0.0011111111111111111,0.0033333333333333335,-0.0022222222222222222,-0.18,1.82,9.65,11.7743912
1671151187.6748252,0,-114.39324951171875,196.39306640625,99.409912109375,1,-29.49884033203125,116.115966796875,-276.55126953125,2,23.548583984375,117.649169921875,-281.6982421875,3,166.402587890625,196.04296875,74.535888671875,0.0,0.0,0.0,0.0,0.0011111111111111111,0.0033333333333333335,-0.0022222222222222222,-0.18,1.82,9.65,11.7743912
1671151187.6848104,0,-114.36395263671875,196.361572265625,99.3642578125,1,-29.5985107421875,116.1533203125,-276.54150390625,2,23.5498046875,117.58984375,-281.71484375,3,166.4013671875,196.008056640625,74.571533203125,0.0,0.0,0.0,0.0,0.0011111111111111111,0.0033333333333333335,-0.0022222222222222222,-0.18,1.82,9.65,11.7743912
1671151187.6948357,0,-114.39215087890625,196.4150390625,99.36767578125,1,-29.61566162109375,116.101806640625,-276.51611328125,2,23.5545654296875,117.59521484375,-281.717041015625,3,166.4171142578125,196.0546875,74.548828125,0.0,0.0,0.0,0.0,0.0,0.0022222222222222222,-0.0,-0.18,1.82,9.63,11.767804128
1671151187.7048151,0,-114.31494140625,196.358642578125,99.361328125,1,-29.58685302734375,116.10693359375,-276.596435546875,2,23.56005859375,117.617431640625,-281.71728515625,3,166.4200439453125,196.096435546875,74.57568359375,0.0,0.0,0.0,0.0,0.0,0.0022222222222222222,-0.0,-0.18,1.82,9.63,11.767804128
1671151187.7148137,0,-114.34698486328125,196.387451171875,99.336669921875,1,-29.64501953125,116.12451171875,-276.56298828125,2,23.568603515625,117.599609375,-281.7294921875,3,166.4310302734375,196.081787109375,74.582275390625,0.0,0.0,0.0,0.0,0.0,0.0022222222222222222,-0.0,-0.18,1.82,9.63,11.767804128
1671151187.7248194,0,-114.37445068359375,196.394775390625,99.35791015625,1,-29.5926513671875,116.12548828125,-276.531982421875,2,23.572509765625,117.642822265625,-281.72265625,3,166.421875,196.056640625,74.550537109375,0.0,0.0,0.0,0.0,0.0,0.0022222222222222222,-0.0,-0.18,1.82,9.63,11.767804128
1671151187.7348378,0,-114.38311767578125,196.37939453125,99.356689453125,1,-29.5631103515625,116.120361328125,-276.563720703125,2,23.5667724609375,117.59228515625,-281.736572265625,3,166.419189453125,196.0419921875,74.552978515625,0.0,0.0,0.0,0.0,0.0,0.0022222222222222222,-0.0,-0.18,1.82,9.63,11.767804128
1671151187.7448401,0,-114.41351318359375,196.376220703125,99.370361328125,1,-29.6298828125,116.1318359375,-276.515380859375,2,23.5653076171875,117.5751953125,-281.726806640625,3,166.4150390625,196.024169921875,74.577880859375,0.0,0.0,0.0,0.0,0.0,-0.0,0.0022222222222222222,-0.18,1.81,9.6,11.787565344
1671151187.7548268,0,-114.3759765625,196.3740234375,99.3837890625,1,-29.560546875,116.103759765625,-276.59033203125,2,23.572998046875,117.628173828125,-281.700439453125,3,166.427734375,196.07568359375,74.6025390625,0.0,0.0,0.0,0.0,0.0,-0.0,0.0022222222222222222,-0.18,1.81,9.6,11.787565344
1671151187.7648335,0,-114.379638671875,196.34033203125,99.371826171875,1,-29.6416015625,116.132080078125,-276.509765625,2,23.55419921875,117.60888671875,-281.73486328125,3,166.4371337890625,196.105712890625,74.61181640625,0.0,0.0,0.0,0.0,0.0,-0.0,0.0022222222222222222,-0.18,1.81,9.6,11.787565344
1671151187.7748585,0,-114.3717041015625,196.329345703125,99.366943359375,1,-29.6048583984375,116.143798828125,-276.547607421875,2,23.5736083984375,117.61962890625,-281.70654296875,3,166.4107666015625,196.076904296875,74.51123046875,0.0,0.0,0.0,0.0,0.0,-0.0,0.0022222222222222222,-0.18,1.81,9.6,11.787565344
1671151187.7848613,0,-114.34765625,196.325927734375,99.387451171875,1,-29.57586669921875,116.11962890625,-276.5185546875,2,23.5494384765625,117.60498046875,-281.754150390625,3,166.393798828125,196.0576171875,74.533447265625,0.0,0.0,0.0,0.0,0.0011111111111111111,-0.0011111111111111111,0.0033333333333333335,-0.19,1.83,9.62,11.777684736000001
1671151187.7947884,0,-114.37469482421875,196.349853515625,99.361083984375,1,-29.656982421875,116.11572265625,-276.508544921875,2,23.5653076171875,117.603271484375,-281.732177734375,3,166.417236328125,196.06005859375,74.55615234375,0.0,0.0,0.0,0.0,0.0011111111111111111,-0.0011111111111111111,0.0033333333333333335,-0.19,1.83,9.62,11.777684736000001
1671151187.8048275,0,-114.38690185546875,196.3671875,99.368408203125,1,-29.59014892578125,116.166015625,-276.53369140625,2,23.5765380859375,117.593994140625,-281.708740234375,3,166.4495849609375,196.095458984375,74.5986328125,0.0,0.0,0.0,0.0,0.0011111111111111111,-0.0011111111111111111,0.0033333333333333335,-0.19,1.83,9.62,11.777684736000001
1671151187.8148563,0,-114.3524169921875,196.34912109375,99.32421875,1,-29.604248046875,116.0966796875,-276.493408203125,2,23.5445556640625,117.60791015625,-281.7392578125,3,166.44775390625,196.094482421875,74.621826171875,0.0,0.0,0.0,0.0,0.0011111111111111111,-0.0011111111111111111,0.0033333333333333335,-0.19,1.83,9.62,11.777684736000001
1671151187.824896,0,-114.41119384765625,196.382080078125,99.354248046875,1,-29.57330322265625,116.1533203125,-276.574951171875,2,23.5765380859375,117.6103515625,-281.68017578125,3,166.3988037109375,196.065673828125,74.536865234375,0.0,0.0,0.0,0.0,0.0011111111111111111,-0.0011111111111111111,0.0033333333333333335,-0.19,1.83,9.62,11.777684736000001
1671151187.8348675,0,-114.42950439453125,196.404296875,99.3515625,1,-29.632080078125,116.209716796875,-276.567138671875,2,23.5819091796875,117.611328125,-281.716796875,3,166.410400390625,196.05126953125,74.54931640625,0.0,0.0,0.0,0.0,0.2822222222222222,0.0011111111111111111,-0.0022222222222222222,-0.17,1.84,9.63,11.784271808
1671151187.844788,0,-114.337646484375,196.356201171875,99.369384765625,1,-29.62335205078125,116.124267578125,-276.52587890625,2,23.5614013671875,117.59033203125,-281.724609375,3,166.417236328125,196.028076171875,74.54736328125,0.0,0.0,0.0,0.0,0.2822222222222222,0.0011111111111111111,-0.0022222222222222222,-0.17,1.84,9.63,11.784271808
1671151187.8548243,0,-114.37261962890625,196.400390625,99.344970703125,1,-29.61572265625,116.135986328125,-276.559326171875,2,23.57177734375,117.61181640625,-281.6826171875,3,166.453125,196.072021484375,74.62158203125,0.0,0.0,0.0,0.0,0.2822222222222222,0.0011111111111111111,-0.0022222222222222222,-0.17,1.84,9.63,11.784271808
1671151187.8648198,0,-114.35382080078125,196.365234375,99.34228515625,1,-29.6356201171875,116.14794921875,-276.5400390625,2,23.5621337890625,117.61181640625,-281.740234375,3,166.474365234375,196.08154296875,74.60400390625,0.0,0.0,0.0,0.0,0.2822222222222222,0.0011111111111111111,-0.0022222222222222222,-0.17,1.84,9.63,11.784271808
1671151187.8748536,0,-114.38336181640625,196.396240234375,99.36962890625,1,-29.6011962890625,116.161865234375,-276.56591796875,2,23.587158203125,117.626708984375,-281.7353515625,3,166.44140625,196.046142578125,74.55908203125,0.0,0.0,0.0,0.0,-0.0022222222222222222,-0.0,-0.0011111111111111111,-0.17,1.81,9.68,11.777684736000001
1671151187.8848865,0,-114.33062744140625,196.412841796875,99.345458984375,1,-29.63958740234375,116.182861328125,-276.573974609375,2,23.5677490234375,117.625244140625,-281.737060546875,3,166.44091796875,196.05810546875,74.531982421875,0.0,0.0,0.0,0.0,-0.0022222222222222222,-0.0,-0.0011111111111111111,-0.17,1.81,9.68,11.777684736000001
1671151187.894794,0,-114.37847900390625,196.4013671875,99.362060546875,1,-29.6297607421875,116.098876953125,-276.51953125,2,23.552001953125,117.58984375,-281.721435546875,3,166.4501953125,196.0458984375,74.5546875,0.0,0.0,0.0,0.0,-0.0022222222222222222,-0.0,-0.0011111111111111111,-0.17,1.81,9.68,11.777684736000001
1671151187.9048247,0,-114.3995361328125,196.393310546875,99.3681640625,1,-29.52386474609375,116.102783203125,-276.547119140625,2,23.569580078125,117.630615234375,-281.671630859375,3,166.43994140625,196.096923828125,74.619384765625,0.0,0.0,0.0,0.0,-0.0022222222222222222,-0.0,-0.0011111111111111111,-0.17,1.81,9.68,11.777684736000001
1671151187.9148273,0,-114.34381103515625,196.406005859375,99.323974609375,1,-29.6180419921875,116.128662109375,-276.55078125,2,23.55419921875,117.6181640625,-281.74365234375,3,166.4671630859375,196.142822265625,74.578857421875,0.0,0.0,0.0,0.0,-0.0022222222222222222,-0.0,-0.0011111111111111111,-0.17,1.81,9.68,11.777684736000001
1671151187.9248953,0,-114.37188720703125,196.3837890625,99.35791015625,1,-29.547119140625,116.126708984375,-276.583984375,2,23.5806884765625,117.623046875,-281.701904296875,3,166.4189453125,196.0703125,74.532958984375,0.0,0.0,0.0,0.0,-0.0022222222222222222,-0.0,-0.0011111111111111111,-0.17,1.81,9.68,11.777684736000001
1671151187.934873,0,-114.30780029296875,196.409912109375,99.348876953125,1,-29.566162109375,116.12841796875,-276.566650390625,2,23.56494140625,117.594970703125,-281.708740234375,3,166.410400390625,196.0625,74.56689453125,0.0,0.0,0.0,0.0,0.0022222222222222222,-0.0033333333333333335,-0.0,-0.19,1.82,9.63,11.777684736000001
1671151187.9447887,0,-114.34588623046875,196.405029296875,99.35498046875,1,-29.609619140625,116.08349609375,-276.5234375,2,23.544921875,117.644287109375,-281.756591796875,3,166.416748046875,196.054443359375,74.560302734375,0.0,0.0,0.0,0.0,0.0022222222222222222,-0.0033333333333333335,-0.0,-0.19,1.82,9.63,11.777684736000001
1671151187.9548225,0,-114.36456298828125,196.379638671875,99.362060546875,1,-29.51654052734375,116.08837890625,-276.504150390625,2,23.537841796875,117.61083984375,-281.706787109375,3,166.455810546875,196.103759765625,74.61767578125,0.0,0.0,0.0,0.0,0.0022222222222222222,-0.0033333333333333335,-0.0,-0.19,1.82,9.63,11.777684736000001
1671151187.9648426,0,-114.36962890625,196.34912109375,99.348388671875,1,-29.63671875,116.131591796875,-276.5283203125,2,23.540771484375,117.6162109375,-281.77001953125,3,166.4627685546875,196.095947265625,74.601806640625,0.0,0.0,0.0,0.0,0.0022222222222222222,-0.0033333333333333335,-0.0,-0.19,1.82,9.63,11.777684736000001
1671151187.9749255,0,-114.42242431640625,196.417236328125,99.350830078125,1,-29.65570068359375,116.165283203125,-276.543701171875,2,23.570068359375,117.615478515625,-281.704345703125,3,166.4259033203125,196.03759765625,74.560302734375,0.0,0.0,0.0,0.0,0.0022222222222222222,-0.0033333333333333335,-0.0,-0.19,1.82,9.63,11.777684736000001
1671151187.9850411,0,-114.38629150390625,196.309326171875,99.357177734375,1,-29.6029052734375,116.110595703125,-276.576171875,2,23.553466796875,117.628173828125,-281.74462890625,3,166.398193359375,196.043701171875,74.543701171875,0.0,0.0,0.0,0.0,-0.0011111111111111111,-0.2833333333333333,-0.0,-0.19,1.84,9.63,11.787565344
1671151187.9949305,0,-114.3953857421875,196.29150390625,99.35205078125,1,-29.62158203125,116.096923828125,-276.541015625,2,23.55029296875,117.617919921875,-281.732666015625,3,166.420654296875,196.064453125,74.544189453125,0.0,0.0,0.0,0.0,-0.0011111111111111111,-0.2833333333333333,-0.0,-0.19,1.84,9.63,11.787565344
1671151188.0048537,0,-114.3294677734375,196.332763671875,99.348876953125,1,-29.574951171875,116.1123046875,-276.53857421875,2,23.5662841796875,117.610107421875,-281.70458984375,3,166.443359375,196.0673828125,74.5869140625,0.0,0.0,0.0,0.0,-0.0011111111111111111,-0.2833333333333333,-0.0,-0.19,1.84,9.63,11.787565344
1671151188.0148213,0,-114.37353515625,196.3603515625,99.32177734375,1,-29.64306640625,116.155517578125,-276.548828125,2,23.564453125,117.627197265625,-281.734130859375,3,166.455322265625,196.086181640625,74.573974609375,0.0,0.0,0.0,0.0,-0.0011111111111111111,-0.2833333333333333,-0.0,-0.19,1.84,9.63,11.787565344
1671151188.024888,0,-114.33538818359375,196.349365234375,99.3837890625,1,-29.5377197265625,116.080322265625,-276.552490234375,2,23.580322265625,117.62548828125,-281.704345703125,3,166.4052734375,196.05859375,74.547119140625,0.0,0.0,0.0,0.0,-0.0011111111111111111,-0.2833333333333333,-0.0,-0.19,1.84,9.63,11.787565344
1671151188.034855,0,-114.39990234375,196.34326171875,99.375,1,-29.62109375,116.11865234375,-276.52099609375,2,23.5557861328125,117.60546875,-281.730712890625,3,166.382568359375,196.067138671875,74.53662109375,0.0,0.0,0.0,0.0,0.0011111111111111111,-0.0,0.0022222222222222222,-0.17,1.82,9.64,11.780978272
1671151188.0447888,0,-114.39837646484375,196.388671875,99.33349609375,1,-29.643310546875,116.13720703125,-276.521484375,2,23.542236328125,117.606689453125,-281.7373046875,3,166.3717041015625,196.068359375,74.540771484375,0.0,0.0,0.0,0.0,0.0011111111111111111,-0.0,0.0022222222222222222,-0.17,1.82,9.64,11.780978272
1671151188.0548124,0,-114.4130859375,196.363525390625,99.364501953125,1,-29.56634521484375,116.1669921875,-276.554443359375,2,23.575927734375,117.6044921875,-281.71875,3,166.43212890625,196.088623046875,74.594482421875,0.0,0.0,0.0,0.0,0.0011111111111111111,-0.0,0.0022222222222222222,-0.17,1.82,9.64,11.780978272
1671151188.064902,0,-114.365966796875,196.331298828125,99.3642578125,1,-29.6182861328125,116.1396484375,-276.529296875,2,23.5821533203125,117.58642578125,-281.725341796875,3,166.443603515625,196.098876953125,74.604736328125,0.0,0.0,0.0,0.0,0.0011111111111111111,-0.0,0.0022222222222222222,-0.17,1.82,9.64,11.780978272
1671151188.0748334,0,-114.3984375,196.39111328125,99.34326171875,1,-29.53790283203125,116.119140625,-276.5517578125,2,23.5894775390625,117.625,-281.7109375,3,166.4010009765625,196.04736328125,74.5439453125,0.0,0.0,0.0,0.0,0.0011111111111111111,-0.0,0.0022222222222222222,-0.17,1.82,9.64,11.780978272
1671151188.084841,0,-114.38958740234375,196.3720703125,99.34716796875,1,-29.60504150390625,116.1357421875,-276.52392578125,2,23.548828125,117.6064453125,-281.731689453125,3,166.424560546875,196.056640625,74.544677734375,0.0,0.0,0.0,0.0,0.0011111111111111111,0.0011111111111111111,0.0011111111111111111,-0.17,1.83,9.61,11.7743912
1671151188.0948198,0,-114.38604736328125,196.388916015625,99.36962890625,1,-29.615234375,116.1240234375,-276.52734375,2,23.5625,117.619873046875,-281.71533203125,3,166.4345703125,196.057373046875,74.545166015625,0.0,0.0,0.0,0.0,0.0011111111111111111,0.0011111111111111111,0.0011111111111111111,-0.17,1.83,9.61,11.7743912
1671151188.10482,0,-114.34539794921875,196.423095703125,99.3447265625,1,-29.569091796875,116.138427734375,-276.5654296875,2,23.5877685546875,117.634765625,-281.67529296875,3,166.4368896484375,196.0927734375,74.589111328125,0.0,0.0,0.0,0.0,0.0011111111111111111,0.0011111111111111111,0.0011111111111111111,-0.17,1.83,9.61,11.7743912
1671151188.1149619,0,-114.3897705078125,196.378662109375,99.35107421875,1,-29.62091064453125,116.128173828125,-276.521484375,2,23.6025390625,117.6103515625,-281.7080078125,3,166.4580078125,196.1044921875,74.5771484375,0.0,0.0,0.0,0.0,0.0011111111111111111,0.0011111111111111111,0.0011111111111111111,-0.17,1.83,9.61,11.7743912
1671151188.1249278,0,-114.35479736328125,196.37060546875,99.346435546875,1,-29.5587158203125,116.109619140625,-276.613525390625,2,23.560791015625,117.628662109375,-281.703125,3,166.4248046875,196.0478515625,74.529296875,0.0,0.0,0.0,0.0,0.0011111111111111111,0.0011111111111111111,0.0011111111111111111,-0.17,1.83,9.61,11.7743912
1671151188.1349294,0,-114.346923828125,196.344970703125,99.3505859375,1,-29.56396484375,116.12109375,-276.538330078125,2,23.547607421875,117.62158203125,-281.723388671875,3,166.3963623046875,196.06298828125,74.56591796875,0.0,0.0,0.0,0.0,-0.0022222222222222222,0.0022222222222222222,0.0011111111111111111,-0.17,1.85,9.63,11.784271808
1671151188.1450062,0,-114.3897705078125,196.35595703125,99.351318359375,1,-29.642333984375,116.0908203125,-276.530029296875,2,23.5673828125,117.59033203125,-281.70849609375,3,166.4024658203125,196.04150390625,74.551025390625,0.0,0.0,0.0,0.0,-0.0022222222222222222,0.0022222222222222222,0.0011111111111111111,-0.17,1.85,9.63,11.784271808
1671151188.1548223,0,-114.35272216796875,196.36572265625,99.34912109375,1,-29.6005859375,116.145263671875,-276.54443359375,2,23.5650634765625,117.62158203125,-281.699951171875,3,166.4298095703125,196.075927734375,74.590087890625,0.0,0.0,0.0,0.0,-0.0022222222222222222,0.0022222222222222222,0.0011111111111111111,-0.17,1.85,9.63,11.784271808
1671151188.164826,0,-114.3333740234375,196.34765625,99.38037109375,1,-29.6519775390625,116.1513671875,-276.50048828125,2,23.549072265625,117.611083984375,-281.716552734375,3,166.4293212890625,196.111572265625,74.5546875,0.0,0.0,0.0,0.0,-0.0022222222222222222,0.0022222222222222222,0.0011111111111111111,-0.17,1.85,9.63,11.784271808
1671151188.1748154,0,-114.395263671875,196.37353515625,99.370849609375,1,-29.6070556640625,116.144287109375,-276.54541015625,2,23.557861328125,117.608642578125,-281.714111328125,3,166.39501953125,196.0380859375,74.5322265625,0.0,0.0,0.0,0.0,-0.0022222222222222222,0.0022222222222222222,0.0011111111111111111,-0.17,1.85,9.63,11.784271808
