Time,Marker0_ID,Marker0_x,Marker0_y,Marker0_z,Marker1_ID,Marker1_x,Marker1_y,Marker1_z,Marker2_ID,Marker2_x,Marker2_y,Marker2_z,Marker3_ID,Marker3_x,Marker3_y,Marker3_z,thetaR,thetaL,dutyR,dutyL,wx,wy,wz,ax,ay,az,Vbatt
1671151911.0339766,0,0,0,0,0,0,0,0,0,0,0,0,0,0,0,0,0,0,0,0,0,0,0,0,0,0,0
1671151911.044066,0,-44.13140869140625,195.338134765625,13.47900390625,1,79.443115234375,117.9580078125,-351.62939453125,2,134.048583984375,119.04833984375,-351.151123046875,3,237.0740966796875,196.26806640625,18.641845703125,0,0,0,0,0,0,0,0,0,0,0
1671151911.0539753,0,-44.00982666015625,195.348388671875,13.415771484375,1,79.437744140625,117.936279296875,-351.587158203125,2,133.9486083984375,119.108642578125,-351.154541015625,3,237.1201171875,196.28173828125,18.668701171875,0,0,0,0,0,0,0,0,0,0,0
1671151911.0639777,0,-44.13055419921875,195.263671875,13.447509765625,1,79.39794921875,117.9716796875,-351.579833984375,2,134.216552734375,118.9990234375,-351.174560546875,3,237.0792236328125,196.348388671875,18.6220703125,0,0,0,0,0,0,0,0,0,0,0
1671151911.0739677,0,-44.1536865234375,195.32666015625,13.46533203125,1,79.4049072265625,117.974853515625,-351.6171875,2,134.0006103515625,119.06787109375,-351.157958984375,3,237.088134765625,196.236083984375,18.629638671875,0,0,0,0,0,0,0,0,0,0,0
1671151911.0840394,0,-44.16912841796875,195.306640625,13.473876953125,1,79.3779296875,117.94775390625,-351.5478515625,2,134.021484375,119.052001953125,-351.140380859375,3,237.149658203125,196.171875,18.642822265625,0,0,0,0,0,0,0,0,0,0,0
1671151911.0939581,0,-44.1632080078125,195.29052734375,13.45703125,1,79.45263671875,117.93896484375,-351.611328125,2,134.119140625,119.0498046875,-351.170654296875,3,237.188232421875,196.252197265625,18.64208984375,0,0,0,0,0,0,0,0,0,0,0
1671151911.1039581,0,-44.203125,195.252685546875,13.454345703125,1,79.2998046875,118.03173828125,-351.515869140625,2,133.9783935546875,119.096435546875,-351.13671875,3,237.102294921875,196.290283203125,18.63818359375,0,0,0,0,0,0,0,0,0,0,0
1671151911.1140594,0,-44.235595703125,195.2421875,13.4853515625,1,79.3564453125,117.9873046875,-351.56201171875,2,134.0479736328125,119.06982421875,-351.13623046875,3,237.1341552734375,196.287841796875,18.63916015625,0,0,0,0,0,0,0,0,0,0,0
1671151911.1239638,0,-44.12158203125,195.29541015625,13.446533203125,1,79.4791259765625,117.912109375,-351.580810546875,2,134.0010986328125,119.04345703125,-351.1201171875,3,237.1593017578125,196.279296875,18.6494140625,0,0,0,0,0,0,0,0,0,0,0
1671151911.1339562,0,-44.18145751953125,195.353271484375,13.489013671875,1,79.337890625,117.985595703125,-351.5595703125,2,133.8951416015625,119.0673828125,-351.139404296875,3,237.0853271484375,196.215576171875,18.63134765625,0,0,0,0,0,0,0,0,0,0,0
1671151911.1439812,0,-44.16021728515625,195.320068359375,13.465576171875,1,79.4937744140625,117.94775390625,-351.6123046875,2,134.0543212890625,119.05126953125,-351.156982421875,3,237.163818359375,196.247314453125,18.638671875,0,0,0,0,0,0,0,0,0,0,0
1671151911.153961,0,-44.1490478515625,195.28173828125,13.43994140625,1,79.453369140625,117.90869140625,-351.588623046875,2,133.9639892578125,119.084228515625,-351.1494140625,3,237.0450439453125,196.299560546875,18.649658203125,0,0,0,0,0,0,0,0,0,0,0
1671151911.1640482,0,-44.1810302734375,195.277099609375,13.4599609375,1,79.4534912109375,117.910888671875,-351.58251953125,2,134.1302490234375,119.0234375,-351.18603515625,3,237.2230224609375,196.320068359375,18.613037109375,0,0,0,0,0,0,0,0,0,0,0
1671151911.173961,0,-44.2108154296875,195.26220703125,13.469482421875,1,79.405029296875,118.0078125,-351.588623046875,2,134.178466796875,119.023681640625,-351.202880859375,3,237.281494140625,196.2666015625,18.561279296875,0,0,0,0,0,0,0,0,0,0,0
1671151911.1840022,0,-44.198486328125,195.321533203125,13.470947265625,1,79.4483642578125,117.959716796875,-351.579833984375,2,133.907958984375,119.099365234375,-351.128662109375,3,237.1318359375,196.195068359375,18.623779296875,0,0,0,0,0,0,0,0,0,0,0
1671151911.1940575,0,-44.21044921875,195.293212890625,13.466064453125,1,79.4219970703125,117.990966796875,-351.599365234375,2,134.0433349609375,119.06640625,-351.1416015625,3,237.1031494140625,196.264892578125,18.65234375,0,0,0,0,0,0,0,0,0,0,0
1671151911.2039986,0,-44.23443603515625,195.24609375,13.499267578125,1,79.447021484375,117.908935546875,-351.554443359375,2,134.0010986328125,119.0654296875,-351.13232421875,3,237.139892578125,196.268798828125,18.634033203125,0.0,0.0,0.0,0.0,0.0,-0.0011111111111111111,-0.0011111111111111111,-0.18,1.86,9.6,11.642649760000001
1671151911.2139852,0,-44.20074462890625,195.225830078125,13.485595703125,1,79.44189453125,117.9345703125,-351.55126953125,2,134.1015625,119.030517578125,-351.165283203125,3,237.234619140625,196.227294921875,18.615966796875,0.0,0.0,0.0,0.0,0.0,-0.0011111111111111111,-0.0011111111111111111,-0.18,1.86,9.6,11.642649760000001
1671151911.2239752,0,-44.1749267578125,195.299560546875,13.46435546875,1,79.402587890625,117.983642578125,-351.58935546875,2,134.135498046875,119.02783203125,-351.1787109375,3,237.1866455078125,196.26025390625,18.6357421875,0.0,0.0,0.0,0.0,0.0,-0.0011111111111111111,-0.0011111111111111111,-0.18,1.86,9.6,11.642649760000001
1671151911.234056,0,-44.24334716796875,195.2314453125,13.494873046875,1,79.3421630859375,117.9931640625,-351.525390625,2,134.018310546875,119.068603515625,-351.17822265625,3,237.0947265625,196.229248046875,18.613525390625,0.0,0.0,0.0,0.0,0.0,-0.0011111111111111111,-0.0011111111111111111,-0.18,1.86,9.6,11.642649760000001
1671151911.2439692,0,-44.2728271484375,195.248046875,13.493896484375,1,79.4071044921875,117.9482421875,-351.564453125,2,134.15380859375,119.01025390625,-351.15869140625,3,237.113525390625,196.304443359375,18.65625,0.0,0.0,0.0,0.0,0.0,0.0011111111111111111,-0.0,-0.2,1.86,9.63,11.645943296
1671151911.253985,0,-44.25665283203125,195.19580078125,13.45703125,1,79.32861328125,118.002685546875,-351.557861328125,2,133.9857177734375,119.074951171875,-351.159423828125,3,237.0616455078125,196.327880859375,18.626953125,0.0,0.0,0.0,0.0,0.0,0.0011111111111111111,-0.0,-0.2,1.86,9.63,11.645943296
1671151911.264007,0,-44.2362060546875,195.165771484375,13.47314453125,1,79.4056396484375,117.955322265625,-351.5810546875,2,134.070556640625,119.048583984375,-351.1552734375,3,237.0869140625,196.30322265625,18.630615234375,0.0,0.0,0.0,0.0,0.0,0.0011111111111111111,-0.0,-0.2,1.86,9.63,11.645943296
1671151911.2740235,0,-44.21319580078125,195.214111328125,13.483154296875,1,79.406982421875,117.94580078125,-351.603515625,2,134.16650390625,118.979736328125,-351.15771484375,3,237.1781005859375,196.258056640625,18.68212890625,0.0,0.0,0.0,0.0,0.0011111111111111111,-0.0033333333333333335,-0.0,-0.21,1.88,9.68,11.668998048
1671151911.2840447,0,-44.26434326171875,195.234619140625,13.50341796875,1,79.420654296875,117.93994140625,-351.557861328125,2,134.019775390625,119.061279296875,-351.144287109375,3,237.06884765625,196.247314453125,18.62548828125,0.0,0.0,0.0,0.0,0.0011111111111111111,-0.0033333333333333335,-0.0,-0.21,1.88,9.68,11.668998048
1671151911.2940643,0,-44.22393798828125,195.222900390625,13.482666015625,1,79.446044921875,117.942626953125,-351.585693359375,2,134.0743408203125,119.000732421875,-351.13720703125,3,237.185791015625,196.26416015625,18.630126953125,0.0,0.0,0.0,0.0,0.0011111111111111111,-0.0033333333333333335,-0.0,-0.21,1.88,9.68,11.668998048
1671151911.304105,0,-44.24420166015625,195.201904296875,13.487060546875,1,79.46923828125,117.904296875,-351.56494140625,2,133.961669921875,119.0791015625,-351.142822265625,3,237.2064208984375,196.26171875,18.59814453125,0.0,0.0,0.0,0.0,0.0011111111111111111,-0.0033333333333333335,-0.0,-0.21,1.88,9.68,11.668998048
1671151911.3140824,0,-44.2528076171875,195.1923828125,13.48974609375,1,79.4857177734375,117.913818359375,-351.53564453125,2,134.1478271484375,119.062255859375,-351.153564453125,3,237.176513671875,196.234619140625,18.648681640625,0.0,0.0,0.0,0.0,0.0011111111111111111,-0.0033333333333333335,-0.0,-0.21,1.88,9.68,11.668998048
1671151911.3240473,0,-44.1907958984375,195.219482421875,13.4833984375,1,79.419921875,117.968505859375,-351.61376953125,2,134.0579833984375,119.0478515625,-351.12255859375,3,237.157470703125,196.233154296875,18.65234375,0.0,0.0,0.0,0.0,0.0011111111111111111,-0.0033333333333333335,-0.0,-0.21,1.88,9.68,11.668998048
1671151911.3340528,0,-44.1822509765625,195.27685546875,13.483154296875,1,79.425048828125,117.951416015625,-351.57177734375,2,133.8946533203125,119.09619140625,-351.111328125,3,237.126708984375,196.197509765625,18.62353515625,0.0,0.0,0.0,0.0,0.0011111111111111111,-0.0033333333333333335,-0.0,-0.21,1.88,9.68,11.668998048
1671151911.3440225,0,-44.26995849609375,195.23291015625,13.476318359375,1,79.3798828125,117.98779296875,-351.589111328125,2,134.242431640625,118.9638671875,-351.201416015625,3,237.1600341796875,196.297119140625,18.642578125,0.0,0.0,0.0,0.0,0.0,-0.0,-0.0,-0.17,1.85,9.65,11.665704512
1671151911.3541448,0,-44.27960205078125,195.198486328125,13.474609375,1,79.44970703125,117.927734375,-351.588623046875,2,134.04638671875,119.0400390625,-351.16015625,3,237.17578125,196.269287109375,18.644287109375,0.0,0.0,0.0,0.0,0.0,-0.0,-0.0,-0.17,1.85,9.65,11.665704512
1671151911.3640935,0,-44.2410888671875,195.203125,13.47314453125,1,79.44580078125,117.923095703125,-351.572509765625,2,134.212158203125,118.95947265625,-351.177978515625,3,237.1627197265625,196.295654296875,18.646240234375,0.0,0.0,0.0,0.0,0.0,-0.0,-0.0,-0.17,1.85,9.65,11.665704512
1671151911.374174,0,-44.22210693359375,195.1748046875,13.4755859375,1,79.539794921875,117.876708984375,-351.58349609375,2,134.003173828125,119.067138671875,-351.151123046875,3,237.0927734375,196.312255859375,18.6396484375,0.0,0.0,0.0,0.0,0.0,-0.0,-0.0,-0.17,1.85,9.65,11.665704512
1671151911.3840914,0,-44.2716064453125,195.214111328125,13.494140625,1,79.491455078125,117.883056640625,-351.578125,2,133.981201171875,119.067138671875,-351.131591796875,3,237.0596923828125,196.2119140625,18.622802734375,0.0,0.0,0.0,0.0,-0.0022222222222222222,-0.0,-0.0,-0.22,1.85,9.66,11.639356224
1671151911.3940914,0,-44.25732421875,195.188232421875,13.50390625,1,79.4024658203125,117.9853515625,-351.60205078125,2,134.100830078125,119.067626953125,-351.139404296875,3,237.0989990234375,196.28369140625,18.63232421875,0.0,0.0,0.0,0.0,-0.0022222222222222222,-0.0,-0.0,-0.22,1.85,9.66,11.639356224
1671151911.4041078,0,-44.23956298828125,195.17333984375,13.4873046875,1,79.4814453125,117.939453125,-351.584228515625,2,133.9039306640625,119.080078125,-351.1181640625,3,237.088134765625,196.277099609375,18.6552734375,0.0,0.0,0.0,0.0,-0.0022222222222222222,-0.0,-0.0,-0.22,1.85,9.66,11.639356224
1671151911.414098,0,-44.2601318359375,195.191650390625,13.486572265625,1,79.513427734375,117.926025390625,-351.59326171875,2,134.1611328125,119.026611328125,-351.15380859375,3,237.12890625,196.28369140625,18.648681640625,0.0,0.0,0.0,0.0,-0.0022222222222222222,-0.0,-0.0,-0.22,1.85,9.66,11.639356224
1671151911.424147,0,-44.28839111328125,195.181884765625,13.47607421875,1,79.5037841796875,117.915283203125,-351.606201171875,2,134.0301513671875,119.06298828125,-351.139892578125,3,237.1259765625,196.232666015625,18.65185546875,0.0,0.0,0.0,0.0,-0.0022222222222222222,-0.0,-0.0,-0.22,1.85,9.66,11.639356224
1671151911.4340684,0,-44.30926513671875,195.190185546875,13.48828125,1,79.5107421875,117.8759765625,-351.58447265625,2,133.955078125,119.075927734375,-351.100341796875,3,237.1051025390625,196.202880859375,18.658447265625,0.0,0.0,0.0,0.0,-0.0022222222222222222,-0.0022222222222222222,0.0011111111111111111,-0.19,1.87,9.67,11.642649760000001
1671151911.4440541,0,-44.250244140625,195.26025390625,13.506591796875,1,79.486083984375,117.9306640625,-351.625244140625,2,134.10791015625,119.058349609375,-351.15625,3,237.1351318359375,196.273193359375,18.626220703125,0.0,0.0,0.0,0.0,-0.0022222222222222222,-0.0022222222222222222,0.0011111111111111111,-0.19,1.87,9.67,11.642649760000001
1671151911.454044,0,-44.2789306640625,195.195556640625,13.4794921875,1,79.494140625,117.904296875,-351.571533203125,2,133.97021484375,119.0947265625,-351.1298828125,3,237.0599365234375,196.318603515625,18.60986328125,0.0,0.0,0.0,0.0,-0.0022222222222222222,-0.0022222222222222222,0.0011111111111111111,-0.19,1.87,9.67,11.642649760000001
1671151911.4640758,0,-44.26312255859375,195.17236328125,13.47998046875,1,79.4691162109375,117.897216796875,-351.559326171875,2,134.123779296875,119.0478515625,-351.170654296875,3,237.136962890625,196.25537109375,18.6435546875,0.0,0.0,0.0,0.0,-0.0022222222222222222,-0.0022222222222222222,0.0011111111111111111,-0.19,1.87,9.67,11.642649760000001
1671151911.4740937,0,-44.29241943359375,195.221923828125,13.4814453125,1,79.331298828125,118.007080078125,-351.580078125,2,133.952880859375,119.103271484375,-351.118408203125,3,237.09619140625,196.207763671875,18.637939453125,0.0,0.0,0.0,0.0,-0.0022222222222222222,-0.0022222222222222222,0.0011111111111111111,-0.19,1.87,9.67,11.642649760000001
1671151911.4841027,0,-44.27569580078125,195.2275390625,13.480224609375,1,79.303955078125,118.002685546875,-351.552978515625,2,134.0584716796875,119.042236328125,-351.157470703125,3,237.0831298828125,196.2177734375,18.629638671875,0.0,0.0,0.0,0.0,-0.0022222222222222222,-0.0,-0.0011111111111111111,-0.19,1.85,9.66,11.649236832
1671151911.4941015,0,-44.16546630859375,195.262451171875,13.468017578125,1,79.2896728515625,118.03857421875,-351.522216796875,2,134.075927734375,119.06494140625,-351.12548828125,3,237.1849365234375,196.269287109375,18.631103515625,0.0,0.0,0.0,0.0,-0.0022222222222222222,-0.0,-0.0011111111111111111,-0.19,1.85,9.66,11.649236832
1671151911.5041022,0,-44.23577880859375,195.1923828125,13.45361328125,1,79.3277587890625,118.017333984375,-351.549072265625,2,134.0025634765625,119.069580078125,-351.14453125,3,237.060302734375,196.29150390625,18.667724609375,0.0,0.0,0.0,0.0,-0.0022222222222222222,-0.0,-0.0011111111111111111,-0.19,1.85,9.66,11.649236832
1671151911.514123,0,-44.21087646484375,195.199462890625,13.46875,1,79.352783203125,117.986572265625,-351.5810546875,2,134.200927734375,118.959716796875,-351.159423828125,3,237.092041015625,196.27001953125,18.66015625,0.0,0.0,0.0,0.0,-0.0022222222222222222,-0.0,-0.0011111111111111111,-0.19,1.85,9.66,11.649236832
1671151911.524037,0,-44.21612548828125,195.19677734375,13.47509765625,1,79.3497314453125,117.999755859375,-351.549560546875,2,134.1640625,118.986083984375,-351.18408203125,3,237.141845703125,196.283447265625,18.621826171875,0.0,0.0,0.0,0.0,-0.0022222222222222222,-0.0,-0.0011111111111111111,-0.19,1.85,9.66,11.649236832
1671151911.5340755,0,-44.1761474609375,195.19970703125,13.48046875,1,79.3826904296875,117.95556640625,-351.5263671875,2,133.952392578125,119.06640625,-351.141357421875,3,237.1240234375,196.198486328125,18.625244140625,0.0,0.0,0.0,0.0,-0.0011111111111111111,-0.0022222222222222222,0.0011111111111111111,-0.18,1.86,9.67,11.649236832
1671151911.5440207,0,-44.22442626953125,195.223388671875,13.490234375,1,79.442626953125,117.9619140625,-351.59375,2,134.046142578125,119.071533203125,-351.151611328125,3,237.1763916015625,196.23974609375,18.64404296875,0.0,0.0,0.0,0.0,-0.0011111111111111111,-0.0022222222222222222,0.0011111111111111111,-0.18,1.86,9.67,11.649236832
1671151911.5540419,0,-44.268310546875,195.2001953125,13.459716796875,1,79.320068359375,118.0107421875,-351.534423828125,2,133.9415283203125,119.076171875,-351.15380859375,3,237.0823974609375,196.286865234375,18.606689453125,0.0,0.0,0.0,0.0,-0.0011111111111111111,-0.0022222222222222222,0.0011111111111111111,-0.18,1.86,9.67,11.649236832
1671151911.5641363,0,-44.20172119140625,195.197998046875,13.45947265625,1,79.351318359375,118.00732421875,-351.51318359375,2,134.081298828125,119.02587890625,-351.1279296875,3,237.0206298828125,196.336669921875,18.6611328125,0.0,0.0,0.0,0.0,-0.0011111111111111111,-0.0022222222222222222,0.0011111111111111111,-0.18,1.86,9.67,11.649236832
1671151911.5741627,0,-44.2667236328125,195.20556640625,13.462158203125,1,79.4527587890625,117.9482421875,-351.61279296875,2,134.060302734375,119.019287109375,-351.14599609375,3,237.1021728515625,196.318115234375,18.623779296875,0.0,0.0,0.0,0.0,-0.0011111111111111111,-0.0022222222222222222,0.0011111111111111111,-0.18,1.86,9.67,11.649236832
1671151911.5841553,0,-44.22198486328125,195.227294921875,13.490234375,1,79.4383544921875,117.927490234375,-351.5673828125,2,134.004638671875,119.03515625,-351.150146484375,3,237.1025390625,196.23046875,18.591064453125,0.0,0.0,0.0,0.0,-0.0022222222222222222,-0.0,-0.2833333333333333,-0.2,1.84,9.7,11.642649760000001
1671151911.594095,0,-44.2181396484375,195.28125,13.49365234375,1,79.4072265625,117.99658203125,-351.59228515625,2,134.121826171875,118.986328125,-351.14111328125,3,237.0869140625,196.295654296875,18.63818359375,0.0,0.0,0.0,0.0,-0.0022222222222222222,-0.0,-0.2833333333333333,-0.2,1.84,9.7,11.642649760000001
1671151911.6040485,0,-44.22772216796875,195.190673828125,13.46240234375,1,79.4444580078125,117.9287109375,-351.5654296875,2,133.9501953125,119.0810546875,-351.130859375,3,237.124267578125,196.315185546875,18.612548828125,0.0,0.0,0.0,0.0,-0.0022222222222222222,-0.0,-0.2833333333333333,-0.2,1.84,9.7,11.642649760000001
1671151911.6140795,0,-44.22723388671875,195.220703125,13.474365234375,1,79.3665771484375,117.986572265625,-351.56005859375,2,134.133544921875,119.02880859375,-351.1611328125,3,237.1544189453125,196.29248046875,18.60791015625,0.0,0.0,0.0,0.0,-0.0022222222222222222,-0.0,-0.2833333333333333,-0.2,1.84,9.7,11.642649760000001
1671151911.624257,0,-44.222900390625,195.1708984375,13.435546875,1,79.4345703125,117.9599609375,-351.55126953125,2,134.12841796875,119.00439453125,-351.156005859375,3,237.1571044921875,196.2900390625,18.633544921875,0.0,0.0,0.0,0.0,-0.0022222222222222222,-0.0,-0.2833333333333333,-0.2,1.84,9.7,11.642649760000001
1671151911.6340787,0,-44.2208251953125,195.242431640625,13.45751953125,1,79.5146484375,117.864013671875,-351.551513671875,2,133.9827880859375,119.069091796875,-351.123046875,3,237.0948486328125,196.22021484375,18.609619140625,0.0,0.0,0.0,0.0,0.0,-0.0,0.0022222222222222222,-0.21,1.85,9.63,11.668998048
1671151911.6440308,0,-44.24420166015625,195.23095703125,13.470947265625,1,79.4798583984375,117.92236328125,-351.540283203125,2,134.1009521484375,119.0498046875,-351.1611328125,3,237.1190185546875,196.30908203125,18.59033203125,0.0,0.0,0.0,0.0,0.0,-0.0,0.0022222222222222222,-0.21,1.85,9.63,11.668998048
1671151911.6540291,0,-44.23779296875,195.2001953125,13.4501953125,1,79.403564453125,117.947265625,-351.5595703125,2,133.9530029296875,119.08203125,-351.123779296875,3,237.083740234375,196.326171875,18.593017578125,0.0,0.0,0.0,0.0,0.0,-0.0,0.0022222222222222222,-0.21,1.85,9.63,11.668998048
1671151911.6640754,0,-44.22650146484375,195.201904296875,13.451416015625,1,79.41015625,117.9404296875,-351.568603515625,2,134.0784912109375,119.053466796875,-351.17431640625,3,237.17724609375,196.266845703125,18.61767578125,0.0,0.0,0.0,0.0,0.0,-0.0,0.0022222222222222222,-0.21,1.85,9.63,11.668998048
1671151911.6740978,0,-44.2120361328125,195.2041015625,13.458984375,1,79.4931640625,117.92724609375,-351.594482421875,2,134.05419921875,119.058349609375,-351.1494140625,3,237.1866455078125,196.296142578125,18.617431640625,0.0,0.0,0.0,0.0,0.0,-0.0,0.0022222222222222222,-0.21,1.85,9.63,11.668998048
1671151911.684094,0,-44.19378662109375,195.211669921875,13.48095703125,1,79.479248046875,117.9453125,-351.588623046875,2,134.00439453125,119.077880859375,-351.165283203125,3,237.1156005859375,196.192138671875,18.623291015625,0.0,0.0,0.0,0.0,0.0,-0.0033333333333333335,0.0033333333333333335,-0.2,1.86,9.65,11.642649760000001
1671151911.6941073,0,-44.23565673828125,195.264892578125,13.4873046875,1,79.38671875,117.992431640625,-351.561767578125,2,134.03173828125,119.058349609375,-351.14794921875,3,237.1368408203125,196.2822265625,18.63330078125,0.0,0.0,0.0,0.0,0.0,-0.0033333333333333335,0.0033333333333333335,-0.2,1.86,9.65,11.642649760000001
1671151911.7041607,0,-44.17340087890625,195.177490234375,13.4931640625,1,79.438720703125,117.953125,-351.57373046875,2,133.8897705078125,119.096923828125,-351.11572265625,3,237.1041259765625,196.3271484375,18.616943359375,0.0,0.0,0.0,0.0,0.0,-0.0033333333333333335,0.0033333333333333335,-0.2,1.86,9.65,11.642649760000001
1671151911.714183,0,-44.2386474609375,195.212890625,13.470703125,1,79.4105224609375,117.96875,-351.5517578125,2,134.135009765625,118.98876953125,-351.139892578125,3,237.1021728515625,196.27294921875,18.692626953125,0.0,0.0,0.0,0.0,0.0,-0.0033333333333333335,0.0033333333333333335,-0.2,1.86,9.65,11.642649760000001
1671151911.7240946,0,-44.2724609375,195.19189453125,13.466064453125,1,79.4986572265625,117.933349609375,-351.59521484375,2,134.114501953125,118.985595703125,-351.13818359375,3,237.14990234375,196.305419921875,18.611328125,0.0,0.0,0.0,0.0,0.0,-0.0033333333333333335,0.0033333333333333335,-0.2,1.86,9.65,11.642649760000001
1671151911.7340562,0,-44.25421142578125,195.224853515625,13.47998046875,1,79.448974609375,117.95947265625,-351.58544921875,2,133.9700927734375,119.01171875,-351.104736328125,3,237.0853271484375,196.21923828125,18.635009765625,0.0,0.0,0.0,0.0,0.0011111111111111111,-0.0022222222222222222,0.0033333333333333335,-0.2,1.86,9.66,11.668998048
1671151911.7440515,0,-44.22100830078125,195.281982421875,13.4716796875,1,79.4134521484375,117.975830078125,-351.59521484375,2,134.0526123046875,119.04541015625,-351.121826171875,3,237.1673583984375,196.289306640625,18.6357421875,0.0,0.0,0.0,0.0,0.0011111111111111111,-0.0022222222222222222,0.0033333333333333335,-0.2,1.86,9.66,11.668998048
1671151911.7540476,0,-44.2537841796875,195.201416015625,13.4580078125,1,79.42626953125,117.950439453125,-351.550048828125,2,133.93896484375,119.0517578125,-351.14453125,3,237.2176513671875,196.271728515625,18.63671875,0.0,0.0,0.0,0.0,0.0011111111111111111,-0.0022222222222222222,0.0033333333333333335,-0.2,1.86,9.66,11.668998048
1671151911.7640727,0,-44.30810546875,195.129150390625,13.4619140625,1,79.4295654296875,117.940673828125,-351.574462890625,2,134.0390625,119.027099609375,-351.126953125,3,237.1378173828125,196.2880859375,18.639404296875,0.0,0.0,0.0,0.0,0.0011111111111111111,-0.0022222222222222222,0.0033333333333333335,-0.2,1.86,9.66,11.668998048
1671151911.7740486,0,-44.32501220703125,195.191650390625,13.45556640625,1,79.4615478515625,117.94384765625,-351.60498046875,2,134.1072998046875,119.05859375,-351.1279296875,3,237.137939453125,196.33203125,18.63916015625,0.0,0.0,0.0,0.0,0.0011111111111111111,-0.0022222222222222222,0.0033333333333333335,-0.2,1.86,9.66,11.668998048
1671151911.784068,0,-44.235107421875,195.20263671875,13.48095703125,1,79.4619140625,117.910400390625,-351.5693359375,2,133.929443359375,119.09716796875,-351.14990234375,3,237.096435546875,196.22705078125,18.605712890625,0.0,0.0,0.0,0.0,-0.0011111111111111111,-0.0,-0.0011111111111111111,-0.2,1.86,9.67,11.662410976
1671151911.7940984,0,-44.24981689453125,195.22998046875,13.490234375,1,79.4691162109375,117.950439453125,-351.600830078125,2,134.09130859375,119.02197265625,-351.166015625,3,237.1485595703125,196.307373046875,18.602294921875,0.0,0.0,0.0,0.0,-0.0011111111111111111,-0.0,-0.0011111111111111111,-0.2,1.86,9.67,11.662410976
1671151911.804097,0,-44.2362060546875,195.137451171875,13.47265625,1,79.54541015625,117.878173828125,-351.589599609375,2,133.975830078125,119.057861328125,-351.136474609375,3,237.205322265625,196.23828125,18.632568359375,0.0,0.0,0.0,0.0,-0.0011111111111111111,-0.0,-0.0011111111111111111,-0.2,1.86,9.67,11.662410976
1671151911.8140986,0,-44.22637939453125,195.230712890625,13.464111328125,1,79.4923095703125,117.905029296875,-351.596923828125,2,134.04931640625,119.05810546875,-351.144287109375,3,237.1025390625,196.288330078125,18.64013671875,0.0,0.0,0.0,0.0,-0.0011111111111111111,-0.0,-0.0011111111111111111,-0.2,1.86,9.67,11.662410976
1671151911.824011,0,-44.2392578125,195.221435546875,13.467529296875,1,79.5284423828125,117.889404296875,-351.605224609375,2,134.12548828125,119.029052734375,-351.18310546875,3,237.1317138671875,196.286865234375,18.65771484375,0.0,0.0,0.0,0.0,-0.0011111111111111111,-0.0,-0.0011111111111111111,-0.2,1.86,9.67,11.662410976
1671151911.8340151,0,-44.239990234375,195.255615234375,13.4833984375,1,79.54052734375,117.879638671875,-351.56982421875,2,133.946533203125,119.05517578125,-351.173095703125,3,237.12109375,196.222900390625,18.637451171875,0.0,0.0,0.0,0.0,-0.0033333333333333335,-0.0,0.0022222222222222222,-0.18,1.86,9.66,11.665704512
1671151911.8440106,0,-44.27587890625,195.23388671875,13.4794921875,1,79.5006103515625,117.921875,-351.580322265625,2,134.1409912109375,118.989990234375,-351.148681640625,3,237.18115234375,196.232177734375,18.66015625,0.0,0.0,0.0,0.0,-0.0033333333333333335,-0.0,0.0022222222222222222,-0.18,1.86,9.66,11.665704512
1671151911.854009,0,-44.24810791015625,195.22021484375,13.46337890625,1,79.49462890625,117.909912109375,-351.595947265625,2,133.9049072265625,119.123291015625,-351.08251953125,3,237.258056640625,196.250732421875,18.63232421875,0.0,0.0,0.0,0.0,-0.0033333333333333335,-0.0,0.0022222222222222222,-0.18,1.86,9.66,11.665704512
1671151911.8640776,0,-44.265869140625,195.22607421875,13.46728515625,1,79.490478515625,117.92333984375,-351.56494140625,2,134.093505859375,119.03271484375,-351.1494140625,3,237.1766357421875,196.279541015625,18.619873046875,0.0,0.0,0.0,0.0,-0.0033333333333333335,-0.0,0.0022222222222222222,-0.18,1.86,9.66,11.665704512
1671151911.874251,0,-44.22772216796875,195.19873046875,13.45068359375,1,79.5455322265625,117.89599609375,-351.611572265625,2,133.984130859375,119.05126953125,-351.130615234375,3,237.1522216796875,196.27099609375,18.6474609375,0.0,0.0,0.0,0.0,-0.0033333333333333335,-0.0,0.0022222222222222222,-0.18,1.86,9.66,11.665704512
1671151911.884129,0,-44.22930908203125,195.24609375,13.457763671875,1,79.4349365234375,117.9306640625,-351.552490234375,2,133.906982421875,119.102783203125,-351.1337890625,3,237.136962890625,196.2158203125,18.626220703125,0.0,0.0,0.0,0.0,0.0,-0.0033333333333333335,0.0011111111111111111,-0.2,1.87,9.68,11.649236832
1671151911.894097,0,-44.2296142578125,195.267333984375,13.46630859375,1,79.5689697265625,117.863037109375,-351.603759765625,2,134.0615234375,119.041015625,-351.14404296875,3,237.2015380859375,196.282958984375,18.611328125,0.0,0.0,0.0,0.0,0.0,-0.0033333333333333335,0.0011111111111111111,-0.2,1.87,9.68,11.649236832
1671151911.9040914,0,-44.2264404296875,195.197021484375,13.4599609375,1,79.3758544921875,117.98193359375,-351.577880859375,2,133.9539794921875,119.1318359375,-351.145263671875,3,237.113037109375,196.259033203125,18.671630859375,0.0,0.0,0.0,0.0,0.0,-0.0033333333333333335,0.0011111111111111111,-0.2,1.87,9.68,11.649236832
1671151911.9140706,0,-44.20330810546875,195.236083984375,13.448974609375,1,79.4127197265625,117.9541015625,-351.573486328125,2,133.9793701171875,119.108154296875,-351.112060546875,3,237.15576171875,196.286376953125,18.630615234375,0.0,0.0,0.0,0.0,0.0,-0.0033333333333333335,0.0011111111111111111,-0.2,1.87,9.68,11.649236832
1671151911.9241023,0,-44.21771240234375,195.245361328125,13.4658203125,1,79.458251953125,117.92822265625,-351.5654296875,2,134.115234375,119.066162109375,-351.16357421875,3,237.07275390625,196.344970703125,18.64990234375,0.0,0.0,0.0,0.0,0.0,-0.0033333333333333335,0.0011111111111111111,-0.2,1.87,9.68,11.649236832
1671151911.934054,0,-44.22723388671875,195.2314453125,13.47119140625,1,79.4945068359375,117.890380859375,-351.576416015625,2,134.0067138671875,119.066650390625,-351.1171875,3,237.1104736328125,196.26904296875,18.58984375,0.0,0.0,0.0,0.0,-0.0011111111111111111,-0.0033333333333333335,0.0011111111111111111,-0.19,1.85,9.67,11.662410976
1671151911.9440348,0,-44.1512451171875,195.296142578125,13.481201171875,1,79.43505859375,117.92724609375,-351.586669921875,2,134.120361328125,119.036376953125,-351.153076171875,3,237.1632080078125,196.266357421875,18.6318359375,0.0,0.0,0.0,0.0,-0.0011111111111111111,-0.0033333333333333335,0.0011111111111111111,-0.19,1.85,9.67,11.662410976
1671151911.9540071,0,-44.16741943359375,195.21826171875,13.45751953125,1,79.3663330078125,118.002685546875,-351.536376953125,2,133.9974365234375,119.07080078125,-351.1474609375,3,237.171875,196.260986328125,18.636962890625,0.0,0.0,0.0,0.0,-0.0011111111111111111,-0.0033333333333333335,0.0011111111111111111,-0.19,1.85,9.67,11.662410976
1671151911.9640794,0,-44.1707763671875,195.26953125,13.436767578125,1,79.43408203125,117.939453125,-351.581298828125,2,134.052978515625,119.043212890625,-351.16259765625,3,237.1180419921875,196.30322265625,18.6123046875,0.0,0.0,0.0,0.0,-0.0011111111111111111,-0.0033333333333333335,0.0011111111111111111,-0.19,1.85,9.67,11.662410976
1671151911.9741497,0,-44.1719970703125,195.280029296875,13.486083984375,1,79.435302734375,117.946533203125,-351.59326171875,2,134.01513671875,119.025146484375,-351.14892578125,3,237.0977783203125,196.204345703125,18.61376953125,0.0,0.0,0.0,0.0,-0.0011111111111111111,-0.0033333333333333335,0.0011111111111111111,-0.19,1.85,9.67,11.662410976
1671151911.9840977,0,-44.1771240234375,195.311767578125,13.466796875,1,79.3531494140625,118.00830078125,-351.5263671875,2,133.91015625,119.043701171875,-351.145751953125,3,237.13134765625,196.21826171875,18.6015625,0.0,0.0,0.0,0.0,-0.0011111111111111111,0.0011111111111111111,-0.0011111111111111111,-0.22,1.87,9.7,11.662410976
1671151911.9940944,0,-44.194580078125,195.283935546875,13.49658203125,1,79.3642578125,117.99951171875,-351.59912109375,2,134.08740234375,119.0087890625,-351.181640625,3,237.1341552734375,196.299072265625,18.64306640625,0.0,0.0,0.0,0.0,-0.0011111111111111111,0.0011111111111111111,-0.0011111111111111111,-0.22,1.87,9.7,11.662410976
1671151912.0040915,0,-44.20465087890625,195.23388671875,13.46044921875,1,79.3497314453125,117.98681640625,-351.57373046875,2,133.9808349609375,119.039306640625,-351.1279296875,3,237.150146484375,196.266357421875,18.65185546875,0.0,0.0,0.0,0.0,-0.0011111111111111111,0.0011111111111111111,-0.0011111111111111111,-0.22,1.87,9.7,11.662410976
1671151912.014107,0,-44.230224609375,195.2568359375,13.4326171875,1,79.3740234375,117.945556640625,-351.5595703125,2,133.93603515625,119.07080078125,-351.1708984375,3,237.13427734375,196.326171875,18.64013671875,0.0,0.0,0.0,0.0,-0.0011111111111111111,0.0011111111111111111,-0.0011111111111111111,-0.22,1.87,9.7,11.662410976
1671151912.024139,0,-44.19293212890625,195.235107421875,13.461669921875,1,79.459228515625,117.94189453125,-351.60302734375,2,134.010498046875,119.068603515625,-351.17041015625,3,237.1513671875,196.263916015625,18.628662109375,0.0,0.0,0.0,0.0,-0.0011111111111111111,0.0011111111111111111,-0.0011111111111111111,-0.22,1.87,9.7,11.662410976
1671151912.0340521,0,-44.19586181640625,195.2763671875,13.459716796875,1,79.3570556640625,118.001953125,-351.536865234375,2,133.94873046875,119.064697265625,-351.141357421875,3,237.1256103515625,196.191162109375,18.6416015625,0.0,0.0,0.0,0.0,0.0,0.0022222222222222222,-0.0,-0.19,1.86,9.65,11.649236832
1671151912.04407,0,-44.26251220703125,195.29541015625,13.4443359375,1,79.4686279296875,117.9365234375,-351.5390625,2,134.0118408203125,119.05322265625,-351.149658203125,3,237.1473388671875,196.29248046875,18.629638671875,0.0,0.0,0.0,0.0,0.0,0.0022222222222222222,-0.0,-0.19,1.86,9.65,11.649236832
1671151912.0540648,0,-44.21990966796875,195.199462890625,13.46826171875,1,79.3961181640625,117.942138671875,-351.56640625,2,133.9635009765625,119.081787109375,-351.135986328125,3,237.16943359375,196.308837890625,18.614013671875,0.0,0.0,0.0,0.0,0.0,0.0022222222222222222,-0.0,-0.19,1.86,9.65,11.649236832
1671151912.064036,0,-44.22491455078125,195.2314453125,13.446533203125,1,79.38671875,117.960693359375,-351.570068359375,2,134.1629638671875,119.005859375,-351.1884765625,3,237.1982421875,196.251220703125,18.6142578125,0.0,0.0,0.0,0.0,0.0,0.0022222222222222222,-0.0,-0.19,1.86,9.65,11.649236832
1671151912.0740218,0,-44.22723388671875,195.241455078125,13.48583984375,1,79.47900390625,117.939697265625,-351.642578125,2,133.9635009765625,119.06884765625,-351.150146484375,3,237.1712646484375,196.227294921875,18.608154296875,0.0,0.0,0.0,0.0,0.0,0.0022222222222222222,-0.0,-0.19,1.86,9.65,11.649236832
1671151912.0840735,0,-44.21771240234375,195.21533203125,13.489501953125,1,79.38818359375,117.970703125,-351.51953125,2,133.9320068359375,119.09423828125,-351.137451171875,3,237.1085205078125,196.206787109375,18.614990234375,0.0,0.0,0.0,0.0,0.0,0.0022222222222222222,-0.0,-0.19,1.86,9.65,11.649236832
1671151912.094008,0,-44.27410888671875,195.247314453125,13.500732421875,1,79.42822265625,117.957763671875,-351.590576171875,2,134.0079345703125,119.1103515625,-351.1591796875,3,237.1453857421875,196.275390625,18.607421875,0.0,0.0,0.0,0.0,-0.0011111111111111111,0.005555555555555556,-0.0,-0.2,1.86,9.66,11.662410976
1671151912.104025,0,-44.22637939453125,195.211181640625,13.46240234375,1,79.3714599609375,117.946533203125,-351.5712890625,2,133.9368896484375,119.05029296875,-351.16162109375,3,237.1357421875,196.26904296875,18.6630859375,0.0,0.0,0.0,0.0,-0.0011111111111111111,0.005555555555555556,-0.0,-0.2,1.86,9.66,11.662410976
1671151912.1141343,0,-44.24383544921875,195.22265625,13.454345703125,1,79.365478515625,117.984375,-351.5498046875,2,133.97705078125,119.062255859375,-351.125732421875,3,237.126220703125,196.27392578125,18.63916015625,0.0,0.0,0.0,0.0,-0.0011111111111111111,0.005555555555555556,-0.0,-0.2,1.86,9.66,11.662410976
1671151912.1241102,0,-44.26739501953125,195.178955078125,13.476806640625,1,79.407470703125,117.9814453125,-351.633544921875,2,134.042724609375,119.09716796875,-351.176513671875,3,237.1490478515625,196.31298828125,18.588623046875,0.0,0.0,0.0,0.0,0.2822222222222222,0.0011111111111111111,-0.0,-0.2,1.87,9.7,11.659117440000001
1671151912.134087,0,-44.26361083984375,195.241943359375,13.494384765625,1,79.33056640625,118.035888671875,-351.595947265625,2,133.93115234375,119.079345703125,-351.158935546875,3,237.108642578125,196.228271484375,18.585693359375,0.0,0.0,0.0,0.0,0.2822222222222222,0.0011111111111111111,-0.0,-0.2,1.87,9.7,11.659117440000001
1671151912.144159,0,-44.2578125,195.209716796875,13.495361328125,1,79.410888671875,117.9697265625,-351.627685546875,2,134.03173828125,119.078369140625,-351.15234375,3,237.1590576171875,196.27685546875,18.66162109375,0.0,0.0,0.0,0.0,0.2822222222222222,0.0011111111111111111,-0.0,-0.2,1.87,9.7,11.659117440000001
1671151912.154099,0,-44.304931640625,195.145751953125,13.49267578125,1,79.36083984375,117.950927734375,-351.560546875,2,133.988525390625,119.058837890625,-351.14013671875,3,237.1180419921875,196.302490234375,18.63818359375,0.0,0.0,0.0,0.0,0.2822222222222222,0.0011111111111111111,-0.0,-0.2,1.87,9.7,11.659117440000001
1671151912.1641052,0,-44.249267578125,195.176513671875,13.463623046875,1,79.358154296875,117.97216796875,-351.5771484375,2,134.166259765625,118.9892578125,-351.1337890625,3,237.209228515625,196.263916015625,18.640625,0.0,0.0,0.0,0.0,0.2822222222222222,0.0011111111111111111,-0.0,-0.2,1.87,9.7,11.659117440000001
1671151912.1740997,0,-44.28631591796875,195.147216796875,13.459228515625,1,79.4395751953125,117.94287109375,-351.598876953125,2,134.033935546875,119.05224609375,-351.13037109375,3,237.140869140625,196.342529296875,18.633056640625,0.0,0.0,0.0,0.0,0.2822222222222222,0.0011111111111111111,-0.0,-0.2,1.87,9.7,11.659117440000001
1671151912.1841059,0,-44.2586669921875,195.2197265625,13.476806640625,1,79.5211181640625,117.878173828125,-351.576171875,2,133.990478515625,119.056640625,-351.12744140625,3,237.080322265625,196.213134765625,18.63134765625,0.0,0.0,0.0,0.0,0.2822222222222222,0.0011111111111111111,-0.0,-0.2,1.87,9.7,11.659117440000001
1671151912.1940515,0,-44.27313232421875,195.22509765625,13.489990234375,1,79.49072265625,117.9091796875,-351.6298828125,2,134.1435546875,118.9921875,-351.149658203125,3,237.1583251953125,196.249755859375,18.66015625,0.0,0.0,0.0,0.0,-0.0011111111111111111,-0.2811111111111111,0.0011111111111111111,-0.18,1.85,9.65,11.655823904
1671151912.2040377,0,-44.22967529296875,195.244384765625,13.458740234375,1,79.4693603515625,117.9384765625,-351.59326171875,2,134.0518798828125,119.04541015625,-351.1650390625,3,237.1290283203125,196.332275390625,18.616943359375,0.0,0.0,0.0,0.0,-0.0011111111111111111,-0.2811111111111111,0.0011111111111111111,-0.18,1.85,9.65,11.655823904
1671151912.2140744,0,-44.181396484375,195.20703125,13.462890625,1,79.43017578125,117.955810546875,-351.55615234375,2,133.9407958984375,119.087646484375,-351.156005859375,3,237.17529296875,196.2578125,18.64892578125,0.0,0.0,0.0,0.0,-0.0011111111111111111,-0.2811111111111111,0.0011111111111111111,-0.18,1.85,9.65,11.655823904
1671151912.2241237,0,-44.19500732421875,195.2236328125,13.460205078125,1,79.490234375,117.92626953125,-351.588623046875,2,134.033935546875,119.0849609375,-351.150634765625,3,237.198974609375,196.229248046875,18.641357421875,0.0,0.0,0.0,0.0,-0.0011111111111111111,-0.2811111111111111,0.0011111111111111111,-0.18,1.85,9.65,11.655823904
1671151912.2340956,0,-44.2724609375,195.259521484375,13.474365234375,1,79.474609375,117.92333984375,-351.56298828125,2,133.943115234375,119.079833984375,-351.1376953125,3,237.10986328125,196.213623046875,18.635986328125,0.0,0.0,0.0,0.0,-0.28444444444444444,-0.0011111111111111111,-0.0022222222222222222,-0.21,1.85,9.71,11.655823904
1671151912.2440457,0,-44.1773681640625,195.2548828125,13.47216796875,1,79.4063720703125,117.953125,-351.598388671875,2,133.962646484375,119.07958984375,-351.11279296875,3,237.16357421875,196.3134765625,18.6083984375,0.0,0.0,0.0,0.0,-0.28444444444444444,-0.0011111111111111111,-0.0022222222222222222,-0.21,1.85,9.71,11.655823904
1671151912.2539978,0,-44.16168212890625,195.189208984375,13.48046875,1,79.326171875,118.00927734375,-351.5185546875,2,133.951416015625,119.072265625,-351.123779296875,3,237.147216796875,196.27685546875,18.6552734375,0.0,0.0,0.0,0.0,-0.28444444444444444,-0.0011111111111111111,-0.0022222222222222222,-0.21,1.85,9.71,11.655823904
1671151912.2640872,0,-44.25787353515625,195.197509765625,13.465087890625,1,79.4345703125,117.946044921875,-351.56787109375,2,134.055908203125,119.085693359375,-351.12109375,3,237.2197265625,196.251220703125,18.64111328125,0.0,0.0,0.0,0.0,-0.28444444444444444,-0.0011111111111111111,-0.0022222222222222222,-0.21,1.85,9.71,11.655823904
1671151912.2741296,0,-44.2308349609375,195.262939453125,13.47021484375,1,79.4078369140625,117.9619140625,-351.581787109375,2,133.963623046875,119.075927734375,-351.11962890625,3,237.0662841796875,196.210693359375,18.640380859375,0.0,0.0,0.0,0.0,-0.28444444444444444,-0.0011111111111111111,-0.0022222222222222222,-0.21,1.85,9.71,11.655823904
1671151912.2841005,0,-44.2274169921875,195.253662109375,13.464111328125,1,79.4552001953125,117.929443359375,-351.561279296875,2,133.9256591796875,119.08935546875,-351.115966796875,3,237.112548828125,196.203125,18.637939453125,0.0,0.0,0.0,0.0,0.0011111111111111111,-0.0,-0.0022222222222222222,-0.2,1.86,9.69,11.639356224
1671151912.2940943,0,-44.21990966796875,195.255615234375,13.4619140625,1,79.3651123046875,118.0078125,-351.5693359375,2,134.1126708984375,119.0087890625,-351.152587890625,3,237.1396484375,196.284912109375,18.651611328125,0.0,0.0,0.0,0.0,0.0011111111111111111,-0.0,-0.0022222222222222222,-0.2,1.86,9.69,11.639356224
1671151912.3041017,0,-44.164306640625,195.23779296875,13.453125,1,79.3880615234375,117.949951171875,-351.5419921875,2,133.99169921875,119.0400390625,-351.13623046875,3,237.126708984375,196.263671875,18.613037109375,0.0,0.0,0.0,0.0,0.0011111111111111111,-0.0,-0.0022222222222222222,-0.2,1.86,9.69,11.639356224
1671151912.314159,0,-44.20294189453125,195.21240234375,13.432373046875,1,79.366943359375,117.998779296875,-351.53125,2,134.1002197265625,119.049072265625,-351.193359375,3,237.0716552734375,196.326904296875,18.64599609375,0.0,0.0,0.0,0.0,0.0011111111111111111,-0.0,-0.0022222222222222222,-0.2,1.86,9.69,11.639356224
1671151912.3241706,0,-44.1910400390625,195.16162109375,13.45166015625,1,79.4296875,117.975830078125,-351.6064453125,2,134.0625,119.0947265625,-351.130859375,3,237.09521484375,196.263671875,18.648681640625,0.0,0.0,0.0,0.0,0.0011111111111111111,-0.0,-0.0022222222222222222,-0.2,1.86,9.69,11.639356224
1671151912.3341591,0,-44.1875,195.313232421875,13.481689453125,1,79.504638671875,117.890625,-351.58154296875,2,134.006103515625,119.060791015625,-351.128173828125,3,237.105712890625,196.17626953125,18.623046875,0.0,0.0,0.0,0.0,0.0,-0.0011111111111111111,-0.0,-0.21,1.86,9.64,11.649236832
1671151912.3440225,0,-44.1480712890625,195.306396484375,13.451904296875,1,79.454345703125,117.94873046875,-351.616455078125,2,134.091064453125,119.0419921875,-351.141845703125,3,237.172119140625,196.243896484375,18.61328125,0.0,0.0,0.0,0.0,0.0,-0.0011111111111111111,-0.0,-0.21,1.86,9.64,11.649236832
1671151912.3539987,0,-44.19482421875,195.290771484375,13.42919921875,1,79.37158203125,117.987060546875,-351.553955078125,2,133.974609375,119.069091796875,-351.15087890625,3,237.1639404296875,196.2900390625,18.612548828125,0.0,0.0,0.0,0.0,0.0,-0.0011111111111111111,-0.0,-0.21,1.86,9.64,11.649236832
1671151912.364153,0,-44.222412109375,195.24755859375,13.4375,1,79.459228515625,117.9169921875,-351.552978515625,2,133.9930419921875,119.05712890625,-351.11328125,3,237.1416015625,196.264404296875,18.647705078125,0.0,0.0,0.0,0.0,0.0,-0.0011111111111111111,-0.0,-0.21,1.86,9.64,11.649236832
1671151912.3741791,0,-44.21563720703125,195.238525390625,13.458740234375,1,79.4486083984375,117.93603515625,-351.60205078125,2,134.0115966796875,119.099365234375,-351.154541015625,3,237.126708984375,196.320556640625,18.608154296875,0.0,0.0,0.0,0.0,0.0,-0.0011111111111111111,-0.0,-0.21,1.86,9.64,11.649236832
1671151912.3840473,0,-44.207275390625,195.25732421875,13.482177734375,1,79.498046875,117.923583984375,-351.58740234375,2,133.95751953125,119.0810546875,-351.125244140625,3,237.11572265625,196.211181640625,18.638427734375,0.0,0.0,0.0,0.0,0.0011111111111111111,-0.0011111111111111111,-0.0011111111111111111,-0.2,1.85,9.71,11.636062688
1671151912.3941429,0,-44.22393798828125,195.2275390625,13.498291015625,1,79.5067138671875,117.898681640625,-351.57958984375,2,134.0662841796875,119.023681640625,-351.12548828125,3,237.2088623046875,196.2138671875,18.66796875,0.0,0.0,0.0,0.0,0.0011111111111111111,-0.0011111111111111111,-0.0011111111111111111,-0.2,1.85,9.71,11.636062688
1671151912.4041133,0,-44.23297119140625,195.224365234375,13.451904296875,1,79.377197265625,117.95458984375,-351.567626953125,2,133.906982421875,119.044189453125,-351.115966796875,3,237.1854248046875,196.28173828125,18.669677734375,0.0,0.0,0.0,0.0,0.0011111111111111111,-0.0011111111111111111,-0.0011111111111111111,-0.2,1.85,9.71,11.636062688
1671151912.4141145,0,-44.25140380859375,195.221435546875,13.4775390625,1,79.34326171875,117.983154296875,-351.5302734375,2,134.0322265625,119.019287109375,-351.130859375,3,237.1085205078125,196.286865234375,18.6376953125,0.0,0.0,0.0,0.0,0.0011111111111111111,-0.0011111111111111111,-0.0011111111111111111,-0.2,1.85,9.71,11.636062688
1671151912.4239879,0,-44.19091796875,195.258544921875,13.45068359375,1,79.583251953125,117.8798828125,-351.616455078125,2,133.9912109375,119.0537109375,-351.1328125,3,237.120361328125,196.322509765625,18.625244140625,0.0,0.0,0.0,0.0,0.0011111111111111111,-0.0011111111111111111,-0.0011111111111111111,-0.2,1.85,9.71,11.636062688
1671151912.4340332,0,-44.2335205078125,195.252685546875,13.480224609375,1,79.4859619140625,117.906982421875,-351.590576171875,2,134.0028076171875,119.04052734375,-351.137939453125,3,237.1219482421875,196.21142578125,18.60693359375,0.0,0.0,0.0,0.0,-0.28444444444444444,0.0011111111111111111,0.0011111111111111111,-0.21,1.86,9.66,11.639356224
1671151912.4439986,0,-44.1644287109375,195.329833984375,13.46875,1,79.557373046875,117.903076171875,-351.623779296875,2,134.0081787109375,119.02685546875,-351.127685546875,3,237.1304931640625,196.303955078125,18.65576171875,0.0,0.0,0.0,0.0,-0.28444444444444444,0.0011111111111111111,0.0011111111111111111,-0.21,1.86,9.66,11.639356224
1671151912.454018,0,-44.18341064453125,195.23681640625,13.44921875,1,79.4954833984375,117.91162109375,-351.578125,2,133.997314453125,119.04296875,-351.152099609375,3,237.182861328125,196.27587890625,18.6328125,0.0,0.0,0.0,0.0,-0.28444444444444444,0.0011111111111111111,0.0011111111111111111,-0.21,1.86,9.66,11.639356224
1671151912.4640336,0,-44.11273193359375,195.28076171875,13.44580078125,1,79.5181884765625,117.8779296875,-351.57080078125,2,134.105224609375,119.018310546875,-351.142333984375,3,237.1561279296875,196.307861328125,18.64306640625,0.0,0.0,0.0,0.0,-0.28444444444444444,0.0011111111111111111,0.0011111111111111111,-0.21,1.86,9.66,11.639356224
1671151912.4739885,0,-44.2061767578125,195.2392578125,13.42822265625,1,79.5650634765625,117.868408203125,-351.604248046875,2,134.1243896484375,119.005126953125,-351.149169921875,3,237.11767578125,196.309326171875,18.642333984375,0.0,0.0,0.0,0.0,0.0,0.0011111111111111111,-0.0011111111111111111,-0.2,1.86,9.69,11.642649760000001
1671151912.4840696,0,-44.2525634765625,195.3212890625,13.451171875,1,79.4814453125,117.9228515625,-351.565673828125,2,134.048828125,119.046875,-351.158203125,3,237.0931396484375,196.208984375,18.617431640625,0.0,0.0,0.0,0.0,0.0,0.0011111111111111111,-0.0011111111111111111,-0.2,1.86,9.69,11.642649760000001
1671151912.4940217,0,-44.226318359375,195.294189453125,13.469482421875,1,79.5159912109375,117.871337890625,-351.562255859375,2,134.1644287109375,118.98681640625,-351.140625,3,237.152587890625,196.2724609375,18.66064453125,0.0,0.0,0.0,0.0,0.0,0.0011111111111111111,-0.0011111111111111111,-0.2,1.86,9.69,11.642649760000001
1671151912.5040941,0,-44.17608642578125,195.2060546875,13.446533203125,1,79.5213623046875,117.883544921875,-351.5634765625,2,134.0264892578125,119.03125,-351.145263671875,3,237.2337646484375,196.213134765625,18.615966796875,0.0,0.0,0.0,0.0,0.0,0.0011111111111111111,-0.0011111111111111111,-0.2,1.86,9.69,11.642649760000001
1671151912.5140202,0,-44.2269287109375,195.264892578125,13.478759765625,1,79.402099609375,117.95947265625,-351.541748046875,2,134.112060546875,119.03564453125,-351.17138671875,3,237.1690673828125,196.258056640625,18.61376953125,0.0,0.0,0.0,0.0,0.0,0.0011111111111111111,-0.0011111111111111111,-0.2,1.86,9.69,11.642649760000001
1671151912.5239623,0,-44.189453125,195.2724609375,13.43896484375,1,79.49267578125,117.90234375,-351.580322265625,2,134.026611328125,119.0791015625,-351.14599609375,3,237.1123046875,196.281005859375,18.625732421875,0.0,0.0,0.0,0.0,0.0,0.0011111111111111111,-0.0011111111111111111,-0.2,1.86,9.69,11.642649760000001
1671151912.5340152,0,-44.224853515625,195.282470703125,13.452392578125,1,79.459716796875,117.916015625,-351.53173828125,2,133.9700927734375,119.081298828125,-351.15625,3,237.057373046875,196.2001953125,18.6513671875,0.0,0.0,0.0,0.0,0.0,0.0011111111111111111,-0.0011111111111111111,-0.2,1.86,9.69,11.642649760000001
1671151912.544007,0,-44.2464599609375,195.2607421875,13.481689453125,1,79.459228515625,117.96923828125,-351.59033203125,2,134.10400390625,119.0478515625,-351.188720703125,3,237.162109375,196.23974609375,18.636474609375,0.0,0.0,0.0,0.0,0.0,-0.0,-0.0011111111111111111,-0.2,1.87,9.62,11.659117440000001
1671151912.554023,0,-44.21771240234375,195.23974609375,13.4736328125,1,79.51806640625,117.89794921875,-351.546630859375,2,133.98193359375,119.05810546875,-351.1787109375,3,237.1466064453125,196.305908203125,18.62158203125,0.0,0.0,0.0,0.0,0.0,-0.0,-0.0011111111111111111,-0.2,1.87,9.62,11.659117440000001
1671151912.56405,0,-44.1964111328125,195.255615234375,13.450927734375,1,79.4864501953125,117.959228515625,-351.57666015625,2,134.041259765625,119.061767578125,-351.166748046875,3,237.1629638671875,196.279052734375,18.630126953125,0.0,0.0,0.0,0.0,0.0,-0.0,-0.0011111111111111111,-0.2,1.87,9.62,11.659117440000001
1671151912.5740316,0,-44.2259521484375,195.193359375,13.458251953125,1,79.3846435546875,117.97802734375,-351.567626953125,2,134.0810546875,119.037109375,-351.140625,3,237.0953369140625,196.328857421875,18.63232421875,0.0,0.0,0.0,0.0,0.0,-0.0,-0.0011111111111111111,-0.2,1.87,9.62,11.659117440000001
1671151912.5840504,0,-44.24908447265625,195.22802734375,13.478759765625,1,79.4915771484375,117.902099609375,-351.576904296875,2,133.9703369140625,119.081298828125,-351.152587890625,3,237.0732421875,196.209228515625,18.63916015625,0.0,0.0,0.0,0.0,0.0,-0.0,-0.0011111111111111111,-0.2,1.87,9.62,11.659117440000001
1671151912.59404,0,-44.24261474609375,195.226806640625,13.49609375,1,79.592529296875,117.883056640625,-351.6064453125,2,134.1016845703125,119.04248046875,-351.145263671875,3,237.105224609375,196.321533203125,18.646484375,0.0,0.0,0.0,0.0,0.0,-0.0,-0.0,-0.2,1.86,9.7,11.652530368
1671151912.6041057,0,-44.22869873046875,195.1904296875,13.49267578125,1,79.4456787109375,117.940185546875,-351.556640625,2,134.018310546875,119.06884765625,-351.15625,3,237.1510009765625,196.284912109375,18.6552734375,0.0,0.0,0.0,0.0,0.0,-0.0,-0.0,-0.2,1.86,9.7,11.652530368
1671151912.6141057,0,-44.26837158203125,195.202880859375,13.484130859375,1,79.4661865234375,117.918701171875,-351.545654296875,2,134.112060546875,119.025390625,-351.158935546875,3,237.2061767578125,196.307373046875,18.62158203125,0.0,0.0,0.0,0.0,0.0,-0.0,-0.0,-0.2,1.86,9.7,11.652530368
1671151912.624134,0,-44.2869873046875,195.15869140625,13.474365234375,1,79.5743408203125,117.881591796875,-351.583251953125,2,134.143798828125,119.02685546875,-351.12890625,3,237.0728759765625,196.3525390625,18.61083984375,0.0,0.0,0.0,0.0,0.0,-0.0,-0.0,-0.2,1.86,9.7,11.652530368
1671151912.6340563,0,-44.28997802734375,195.236572265625,13.470458984375,1,79.5269775390625,117.90234375,-351.54931640625,2,133.961669921875,119.054443359375,-351.140625,3,237.1280517578125,196.16357421875,18.62939453125,0.0,0.0,0.0,0.0,0.0011111111111111111,-0.0,-0.2822222222222222,-0.2,1.86,9.7,11.652530368
1671151912.6440196,0,-44.25274658203125,195.251220703125,13.484619140625,1,79.5238037109375,117.9072265625,-351.581787109375,2,134.1815185546875,118.999267578125,-351.213623046875,3,237.25048828125,196.24951171875,18.59423828125,0.0,0.0,0.0,0.0,0.0011111111111111111,-0.0,-0.2822222222222222,-0.2,1.86,9.7,11.652530368
1671151912.6539984,0,-44.25030517578125,195.182373046875,13.462646484375,1,79.447265625,117.937744140625,-351.57421875,2,133.9710693359375,119.07568359375,-351.156494140625,3,237.17431640625,196.284912109375,18.64404296875,0.0,0.0,0.0,0.0,0.0011111111111111111,-0.0,-0.2822222222222222,-0.2,1.86,9.7,11.652530368
1671151912.6640594,0,-44.25946044921875,195.22802734375,13.46142578125,1,79.501708984375,117.9052734375,-351.5830078125,2,134.0682373046875,119.054931640625,-351.146728515625,3,237.1258544921875,196.270751953125,18.66015625,0.0,0.0,0.0,0.0,0.0011111111111111111,-0.0,-0.2822222222222222,-0.2,1.86,9.7,11.652530368
1671151912.6740613,0,-44.197509765625,195.298095703125,13.45556640625,1,79.447998046875,117.943115234375,-351.5908203125,2,134.03076171875,119.101806640625,-351.160888671875,3,237.087646484375,196.205322265625,18.6376953125,0.0,0.0,0.0,0.0,0.0011111111111111111,-0.0,-0.2822222222222222,-0.2,1.86,9.7,11.652530368
1671151912.684102,0,-44.2420654296875,195.26318359375,13.466552734375,1,79.4534912109375,117.943603515625,-351.593505859375,2,133.957763671875,119.07373046875,-351.132568359375,3,237.10791015625,196.199951171875,18.6337890625,0.0,0.0,0.0,0.0,0.0011111111111111111,-0.0,-0.2822222222222222,-0.2,1.86,9.7,11.652530368
1671151912.6940968,0,-44.23553466796875,195.266357421875,13.470703125,1,79.371337890625,118.003662109375,-351.58837890625,2,134.19140625,119.002685546875,-351.2060546875,3,237.1390380859375,196.28125,18.66357421875,0.0,0.0,0.0,0.0,-0.0011111111111111111,-0.2833333333333333,-0.0011111111111111111,-0.19,1.87,9.64,11.636062688
1671151912.7041848,0,-44.264404296875,195.260498046875,13.482666015625,1,79.28759765625,118.008544921875,-351.5703125,2,134.1578369140625,118.995361328125,-351.14111328125,3,237.1116943359375,196.19140625,18.61083984375,0.0,0.0,0.0,0.0,-0.0011111111111111111,-0.2833333333333333,-0.0011111111111111111,-0.19,1.87,9.64,11.636062688
1671151912.714176,0,-44.22528076171875,195.19677734375,13.472900390625,1,79.3787841796875,117.9716796875,-351.53662109375,2,134.11376953125,119.021728515625,-351.15771484375,3,237.1280517578125,196.220947265625,18.653076171875,0.0,0.0,0.0,0.0,-0.0011111111111111111,-0.2833333333333333,-0.0011111111111111111,-0.19,1.87,9.64,11.636062688
1671151912.7240965,0,-44.14794921875,195.22900390625,13.4501953125,1,79.4642333984375,117.99755859375,-351.58056640625,2,134.0897216796875,119.026611328125,-351.154052734375,3,237.0916748046875,196.300048828125,18.620849609375,0.0,0.0,0.0,0.0,-0.0011111111111111111,-0.2833333333333333,-0.0011111111111111111,-0.19,1.87,9.64,11.636062688
1671151912.7341006,0,-44.2464599609375,195.2998046875,13.455078125,1,79.341064453125,118.001953125,-351.5302734375,2,133.9599609375,119.06298828125,-351.140869140625,3,237.1263427734375,196.191650390625,18.62841796875,0.0,0.0,0.0,0.0,-0.2833333333333333,-0.0,0.0011111111111111111,-0.19,1.85,9.71,11.649236832
1671151912.7441626,0,-44.166748046875,195.27490234375,13.472900390625,1,79.406982421875,118.0126953125,-351.572509765625,2,134.024658203125,119.07666015625,-351.155517578125,3,237.25048828125,196.246337890625,18.625,0.0,0.0,0.0,0.0,-0.2833333333333333,-0.0,0.0011111111111111111,-0.19,1.85,9.71,11.649236832
1671151912.754174,0,-44.24432373046875,195.220458984375,13.452392578125,1,79.2586669921875,118.0712890625,-351.57470703125,2,134.030517578125,119.07568359375,-351.163330078125,3,237.1473388671875,196.314697265625,18.656982421875,0.0,0.0,0.0,0.0,-0.2833333333333333,-0.0,0.0011111111111111111,-0.19,1.85,9.71,11.649236832
1671151912.764065,0,-44.2493896484375,195.2021484375,13.472412109375,1,79.476806640625,117.932861328125,-351.564453125,2,134.085205078125,119.053955078125,-351.185791015625,3,237.1192626953125,196.311279296875,18.639892578125,0.0,0.0,0.0,0.0,-0.2833333333333333,-0.0,0.0011111111111111111,-0.19,1.85,9.71,11.649236832
1671151912.7740228,0,-44.20440673828125,195.204345703125,13.458984375,1,79.2801513671875,118.08544921875,-351.494140625,2,134.031494140625,119.046142578125,-351.13232421875,3,237.11328125,196.321533203125,18.6162109375,0.0,0.0,0.0,0.0,-0.2833333333333333,-0.0,0.0011111111111111111,-0.19,1.85,9.71,11.649236832
1671151912.7841585,0,-44.2230224609375,195.301025390625,13.462158203125,1,79.316162109375,118.0185546875,-351.562744140625,2,133.953369140625,119.081787109375,-351.148193359375,3,237.0762939453125,196.24658203125,18.58935546875,0.0,0.0,0.0,0.0,0.0,-0.0011111111111111111,-0.0,-0.19,1.86,9.71,11.649236832
1671151912.7941,0,-44.26507568359375,195.297607421875,13.476318359375,1,79.465087890625,117.94580078125,-351.573974609375,2,134.123291015625,119.00634765625,-351.166015625,3,237.1309814453125,196.277587890625,18.634765625,0.0,0.0,0.0,0.0,0.0,-0.0011111111111111111,-0.0,-0.19,1.86,9.71,11.649236832
1671151912.8041027,0,-44.23541259765625,195.244873046875,13.45849609375,1,79.4537353515625,117.938232421875,-351.566162109375,2,133.973388671875,119.0498046875,-351.142578125,3,237.2276611328125,196.238037109375,18.614501953125,0.0,0.0,0.0,0.0,0.0,-0.0011111111111111111,-0.0,-0.19,1.86,9.71,11.649236832
1671151912.8141062,0,-44.1820068359375,195.2568359375,13.458740234375,1,79.455810546875,117.905029296875,-351.548828125,2,134.072998046875,119.027099609375,-351.162109375,3,237.1812744140625,196.281005859375,18.647705078125,0.0,0.0,0.0,0.0,0.0,-0.0011111111111111111,-0.0,-0.19,1.86,9.71,11.649236832
1671151912.8241048,0,-44.1807861328125,195.2626953125,13.475830078125,1,79.42333984375,117.947021484375,-351.56005859375,2,134.01953125,119.015625,-351.14697265625,3,237.1085205078125,196.21728515625,18.6181640625,0.0,0.0,0.0,0.0,0.0,-0.0011111111111111111,-0.0,-0.19,1.86,9.71,11.649236832
1671151912.8341038,0,-44.15521240234375,195.35107421875,13.484130859375,1,79.435302734375,117.949462890625,-351.556640625,2,133.9217529296875,119.101806640625,-351.123779296875,3,237.0692138671875,196.232177734375,18.619873046875,0.0,0.0,0.0,0.0,-0.0011111111111111111,0.0022222222222222222,0.0033333333333333335,-0.21,1.87,9.66,11.655823904
1671151912.8440566,0,-44.2279052734375,195.31787109375,13.47265625,1,79.3580322265625,118.006103515625,-351.561767578125,2,134.110107421875,119.037841796875,-351.1318359375,3,237.150634765625,196.288818359375,18.62158203125,0.0,0.0,0.0,0.0,-0.0011111111111111111,0.0022222222222222222,0.0033333333333333335,-0.21,1.87,9.66,11.655823904
1671151912.8541527,0,-44.232421875,195.253662109375,13.466552734375,1,79.469482421875,117.92041015625,-351.55712890625,2,134.0234375,119.041015625,-351.124755859375,3,237.18212890625,196.246337890625,18.642822265625,0.0,0.0,0.0,0.0,-0.0011111111111111111,0.0022222222222222222,0.0033333333333333335,-0.21,1.87,9.66,11.655823904
1671151912.8641021,0,-44.192138671875,195.25732421875,13.417724609375,1,79.37451171875,117.9912109375,-351.548583984375,2,134.05224609375,119.028076171875,-351.1201171875,3,237.16064453125,196.322998046875,18.641357421875,0.0,0.0,0.0,0.0,-0.0011111111111111111,0.0022222222222222222,0.0033333333333333335,-0.21,1.87,9.66,11.655823904
1671151912.8741875,0,-44.21453857421875,195.245361328125,13.470703125,1,79.3909912109375,117.989501953125,-351.5830078125,2,134.0181884765625,119.072509765625,-351.11572265625,3,237.1324462890625,196.2529296875,18.61328125,0.0,0.0,0.0,0.0,-0.0011111111111111111,0.0022222222222222222,0.0033333333333333335,-0.21,1.87,9.66,11.655823904
1671151912.8841007,0,-44.22320556640625,195.263427734375,13.48876953125,1,79.4630126953125,117.9404296875,-351.593017578125,2,133.982666015625,119.06640625,-351.120361328125,3,237.0830078125,196.216552734375,18.627197265625,0.0,0.0,0.0,0.0,-0.0011111111111111111,0.0022222222222222222,0.0033333333333333335,-0.21,1.87,9.66,11.655823904
1671151912.8940907,0,-44.18951416015625,195.283447265625,13.482421875,1,79.4039306640625,117.97119140625,-351.5908203125,2,134.049560546875,119.04931640625,-351.1298828125,3,237.123046875,196.300048828125,18.64404296875,0.0,0.0,0.0,0.0,-0.0011111111111111111,0.0022222222222222222,0.0033333333333333335,-0.21,1.87,9.66,11.655823904
1671151912.9040644,0,-44.2281494140625,195.26123046875,13.462890625,1,79.4293212890625,117.930419921875,-351.56787109375,2,133.97119140625,119.076904296875,-351.09375,3,237.1019287109375,196.2978515625,18.631103515625,0.0,0.0,0.0,0.0,-0.0011111111111111111,-0.0022222222222222222,0.0022222222222222222,-0.2,1.85,9.65,11.636062688
1671151912.914006,0,-44.24737548828125,195.24169921875,13.464111328125,1,79.3768310546875,117.990478515625,-351.56689453125,2,133.9859619140625,119.1171875,-351.134521484375,3,237.159423828125,196.29052734375,18.645751953125,0.0,0.0,0.0,0.0,-0.0011111111111111111,-0.0022222222222222222,0.0022222222222222222,-0.2,1.85,9.65,11.636062688
1671151912.9240057,0,-44.2137451171875,195.263916015625,13.448974609375,1,79.3876953125,117.987548828125,-351.593505859375,2,134.0419921875,119.085205078125,-351.16845703125,3,237.1192626953125,196.279052734375,18.622314453125,0.0,0.0,0.0,0.0,-0.0011111111111111111,-0.0022222222222222222,0.0022222222222222222,-0.2,1.85,9.65,11.636062688
1671151912.9340198,0,-44.24163818359375,195.243408203125,13.50146484375,1,79.422607421875,117.9560546875,-351.54052734375,2,133.950439453125,119.087890625,-351.118896484375,3,237.130126953125,196.151123046875,18.63037109375,0.0,0.0,0.0,0.0,-0.0011111111111111111,-0.0044444444444444444,-0.0,-0.2,1.87,9.7,11.636062688
1671151912.9439962,0,-44.25604248046875,195.263671875,13.51953125,1,79.3856201171875,117.95556640625,-351.567626953125,2,134.078125,119.07275390625,-351.1708984375,3,237.1640625,196.2666015625,18.652099609375,0.0,0.0,0.0,0.0,-0.0011111111111111111,-0.0044444444444444444,-0.0,-0.2,1.87,9.7,11.636062688
1671151912.9540064,0,-44.23052978515625,195.21142578125,13.473388671875,1,79.3846435546875,117.961181640625,-351.567626953125,2,133.9603271484375,119.0556640625,-351.148193359375,3,237.2232666015625,196.2998046875,18.60400390625,0.0,0.0,0.0,0.0,-0.0011111111111111111,-0.0044444444444444444,-0.0,-0.2,1.87,9.7,11.636062688
1671151912.964018,0,-44.20428466796875,195.220458984375,13.466552734375,1,79.4549560546875,117.954345703125,-351.5771484375,2,134.090576171875,119.014404296875,-351.1416015625,3,237.2213134765625,196.230224609375,18.598876953125,0.0,0.0,0.0,0.0,-0.0011111111111111111,-0.0044444444444444444,-0.0,-0.2,1.87,9.7,11.636062688
1671151912.9740028,0,-44.24298095703125,195.224609375,13.45556640625,1,79.413330078125,117.95556640625,-351.5849609375,2,133.9896240234375,119.028076171875,-351.113037109375,3,237.1446533203125,196.29150390625,18.616455078125,0.0,0.0,0.0,0.0,-0.0011111111111111111,-0.0044444444444444444,-0.0,-0.2,1.87,9.7,11.636062688
1671151912.9840064,0,-44.287109375,195.237060546875,13.488037109375,1,79.3443603515625,118.0283203125,-351.587890625,2,133.9791259765625,119.06494140625,-351.129638671875,3,237.1207275390625,196.238037109375,18.610107421875,0.0,0.0,0.0,0.0,-0.0011111111111111111,-0.0044444444444444444,-0.0,-0.2,1.87,9.7,11.636062688
1671151912.9940093,0,-44.3052978515625,195.262451171875,13.474853515625,1,79.4049072265625,117.9775390625,-351.581787109375,2,134.14697265625,118.981201171875,-351.127197265625,3,237.128662109375,196.273681640625,18.619384765625,0.0,0.0,0.0,0.0,-0.0011111111111111111,-0.0044444444444444444,-0.0,-0.2,1.87,9.7,11.636062688
1671151913.0040042,0,-44.21954345703125,195.228759765625,13.435546875,1,79.3941650390625,117.947998046875,-351.5576171875,2,133.9730224609375,119.07080078125,-351.1376953125,3,237.10107421875,196.278564453125,18.652587890625,0.0,0.0,13.2,13.2,0.0011111111111111111,-0.0044444444444444444,-0.0,-0.21,1.86,9.6,11.659117440000001
1671151913.014015,0,-44.21759033203125,195.234619140625,13.455078125,1,79.4781494140625,117.8603515625,-351.510498046875,2,134.05615234375,119.00048828125,-351.087646484375,3,237.1993408203125,196.311767578125,18.61328125,0.0,0.0,13.2,13.2,0.0011111111111111111,-0.0044444444444444444,-0.0,-0.21,1.86,9.6,11.659117440000001
1671151913.0239875,0,-44.1766357421875,195.27685546875,13.625,1,79.1492919921875,117.950927734375,-351.3984375,2,133.7630615234375,119.01904296875,-351.02880859375,3,237.2723388671875,196.319091796875,18.552978515625,0.0,0.0,13.2,13.2,0.0011111111111111111,-0.0044444444444444444,-0.0,-0.21,1.86,9.6,11.659117440000001
1671151913.033968,0,-44.14154052734375,195.34716796875,13.971923828125,1,78.8304443359375,117.894775390625,-351.161376953125,2,133.290283203125,119.038330078125,-350.8388671875,3,237.249267578125,196.3359375,18.475830078125,0.0,0.0,13.2,13.2,0.0011111111111111111,-0.0044444444444444444,-0.0,-0.21,1.86,9.6,11.659117440000001
1671151913.0440347,0,-44.09490966796875,195.368896484375,14.421875,1,78.58935546875,117.71142578125,-350.810302734375,2,132.856689453125,119.000244140625,-350.539794921875,3,237.3572998046875,196.4931640625,18.523681640625,0.0001438897398590745,0.000671485452675681,33.5,33.5,-0.0011111111111111111,-0.0,-0.0,-0.28,2.04,9.66,11.659117440000001
1671151913.053986,0,-44.09588623046875,195.459228515625,14.804931640625,1,78.134521484375,117.79248046875,-350.246826171875,2,132.59033203125,118.94384765625,-350.067138671875,3,237.3583984375,196.60302734375,18.769287109375,0.0001438897398590745,0.000671485452675681,33.5,33.5,-0.0011111111111111111,-0.0,-0.0,-0.28,2.04,9.66,11.659117440000001
1671151913.0640347,0,-44.13507080078125,195.534912109375,15.511962890625,1,77.9525146484375,117.68603515625,-349.3994140625,2,132.42431640625,118.85595703125,-349.238525390625,3,237.323974609375,196.68798828125,19.45556640625,0.0001438897398590745,0.000671485452675681,33.5,33.5,-0.0011111111111111111,-0.0,-0.0,-0.28,2.04,9.66,11.659117440000001
1671151913.0739853,0,-44.07354736328125,195.56591796875,16.549560546875,1,78.0050048828125,117.560546875,-348.386962890625,2,132.4346923828125,118.684814453125,-348.28173828125,3,237.2894287109375,196.707763671875,20.418701171875,0.0001438897398590745,0.000671485452675681,33.5,33.5,-0.0011111111111111111,-0.0,-0.0,-0.28,2.04,9.66,11.659117440000001
1671151913.0840032,0,-44.11700439453125,195.525146484375,17.709716796875,1,77.825439453125,117.68798828125,-347.331787109375,2,132.1937255859375,118.700439453125,-347.15234375,3,237.344970703125,196.65087890625,21.573486328125,0.0001438897398590745,0.000671485452675681,33.5,33.5,-0.0011111111111111111,-0.0,-0.0,-0.28,2.04,9.66,11.659117440000001
1671151913.0940018,0,-44.18316650390625,195.65283203125,19.147216796875,1,77.8426513671875,117.50634765625,-345.76025390625,2,132.092041015625,118.4931640625,-345.6591796875,3,237.38623046875,196.850830078125,22.90185546875,0.022926431884212534,0.030696477836602558,46.2,46.2,0.005555555555555556,-0.14555555555555555,0.07333333333333333,3.4,1.68,9.93,11.589953184
1671151913.104031,0,-44.30694580078125,195.74853515625,20.8671875,1,77.564697265625,117.425048828125,-344.103759765625,2,131.83544921875,118.43115234375,-344.00244140625,3,237.1846923828125,196.776123046875,24.642822265625,0.022926431884212534,0.030696477836602558,46.2,46.2,0.005555555555555556,-0.14555555555555555,0.07333333333333333,3.4,1.68,9.93,11.589953184
1671151913.1140344,0,-44.42132568359375,195.583740234375,22.70556640625,1,77.4588623046875,117.253662109375,-342.4697265625,2,131.660400390625,118.27294921875,-342.29638671875,3,237.2781982421875,196.697021484375,26.411376953125,0.022926431884212534,0.030696477836602558,46.2,46.2,0.005555555555555556,-0.14555555555555555,0.07333333333333333,3.4,1.68,9.93,11.589953184
1671151913.124004,0,-44.56805419921875,195.626953125,25.020263671875,1,77.4102783203125,117.2119140625,-340.103271484375,2,131.5810546875,118.06005859375,-340.07861328125,3,237.260498046875,196.8271484375,28.58447265625,0.022926431884212534,0.030696477836602558,46.2,46.2,0.005555555555555556,-0.14555555555555555,0.07333333333333333,3.4,1.68,9.93,11.589953184
1671151913.1340199,0,-44.189697265625,195.722900390625,27.275146484375,1,76.9398193359375,117.22802734375,-337.84228515625,2,131.278076171875,117.97509765625,-337.88330078125,3,237.220703125,196.797119140625,30.809814453125,0.11439234318796423,0.11851718239725768,48.4,48.4,0.0033333333333333335,-0.10444444444444445,0.013333333333333334,3.47,1.79,8.75,11.596540256
1671151913.1440048,0,-44.06597900390625,195.7509765625,29.98583984375,1,76.9559326171875,116.918701171875,-335.1796875,2,131.2669677734375,117.68359375,-335.23828125,3,237.240966796875,196.876708984375,33.447998046875,0.11439234318796423,0.11851718239725768,48.4,48.4,0.0033333333333333335,-0.10444444444444445,0.013333333333333334,3.47,1.79,8.75,11.596540256
1671151913.1540184,0,-44.1697998046875,195.752685546875,32.6767578125,1,76.779296875,116.930419921875,-332.579833984375,2,130.9210205078125,117.6376953125,-332.662109375,3,237.154296875,196.963134765625,36.0888671875,0.11439234318796423,0.11851718239725768,48.4,48.4,0.0033333333333333335,-0.10444444444444445,0.013333333333333334,3.47,1.79,8.75,11.596540256
1671151913.1640158,0,-44.1893310546875,195.896484375,35.757080078125,1,76.6065673828125,116.753662109375,-329.337890625,2,130.8746337890625,117.5302734375,-329.582275390625,3,237.1217041015625,196.9453125,39.096435546875,0.11439234318796423,0.11851718239725768,48.4,48.4,0.0033333333333333335,-0.10444444444444445,0.013333333333333334,3.47,1.79,8.75,11.596540256
1671151913.1739655,0,-44.1485595703125,196.0078125,39.1376953125,1,76.446044921875,116.673828125,-326.224853515625,2,130.7437744140625,117.445556640625,-326.33837890625,3,237.145263671875,197.049560546875,42.2607421875,0.11439234318796423,0.11851718239725768,48.4,48.4,0.0033333333333333335,-0.10444444444444445,0.013333333333333334,3.47,1.79,8.75,11.596540256
1671151913.1839902,0,-44.1875,195.8671875,42.1416015625,1,76.236572265625,116.441162109375,-323.533447265625,2,130.4088134765625,117.37939453125,-323.49169921875,3,237.088134765625,196.89013671875,45.16845703125,0.2693136297695678,0.2700810417154828,48.4,48.4,0.017777777777777778,-0.04,0.034444444444444444,4.33,1.63,9.11,11.642649760000001
1671151913.193988,0,-44.131103515625,195.820068359375,45.553466796875,1,75.9852294921875,116.232666015625,-320.01513671875,2,130.279052734375,117.391845703125,-320.10546875,3,237.26318359375,196.68359375,48.501953125,0.2693136297695678,0.2700810417154828,48.4,48.4,0.017777777777777778,-0.04,0.034444444444444444,4.33,1.63,9.11,11.642649760000001
1671151913.2040148,0,-44.24884033203125,195.892578125,48.57763671875,1,75.888671875,116.173095703125,-317.044921875,2,130.25927734375,117.333984375,-317.15234375,3,237.203369140625,196.707763671875,51.523193359375,0.2693136297695678,0.2700810417154828,48.4,48.4,0.017777777777777778,-0.04,0.034444444444444444,4.33,1.63,9.11,11.642649760000001
1671151913.2140167,0,-44.36016845703125,195.937255859375,51.999755859375,1,75.9437255859375,116.396728515625,-313.81884765625,2,130.2667236328125,117.316650390625,-313.80517578125,3,237.347900390625,196.70849609375,54.849609375,0.2693136297695678,0.2700810417154828,48.4,48.4,0.017777777777777778,-0.04,0.034444444444444444,4.33,1.63,9.11,11.642649760000001
1671151913.224004,0,-44.3001708984375,195.810546875,55.405029296875,1,75.7520751953125,116.4013671875,-310.432373046875,2,130.073974609375,117.296142578125,-310.4892578125,3,237.2890625,196.7841796875,58.107421875,0.2693136297695678,0.2700810417154828,48.4,48.4,0.017777777777777778,-0.04,0.034444444444444444,4.33,1.63,9.11,11.642649760000001
1671151913.2340097,0,-44.59710693359375,195.616455078125,58.668701171875,1,75.5582275390625,116.386474609375,-307.440673828125,2,129.8389892578125,117.358642578125,-307.55859375,3,237.192626953125,196.644287109375,61.09521484375,0.4382881476107409,0.43013439568539336,48.4,48.4,-0.03222222222222222,0.09777777777777778,0.03,-0.69,2.72,10.31,11.685465728
1671151913.2439883,0,-44.55401611328125,195.57861328125,62.086669921875,1,75.4444580078125,116.3583984375,-304.061279296875,2,129.550537109375,117.36376953125,-304.039794921875,3,237.04248046875,196.70556640625,64.367919921875,0.4382881476107409,0.43013439568539336,48.4,48.4,-0.03222222222222222,0.09777777777777778,0.03,-0.69,2.72,10.31,11.685465728
1671151913.253997,0,-44.3875732421875,195.627685546875,65.123291015625,1,75.1221923828125,116.33837890625,-301.110107421875,2,129.1273193359375,117.365478515625,-300.841064453125,3,237.279052734375,196.620849609375,67.31689453125,0.4382881476107409,0.43013439568539336,48.4,48.4,-0.03222222222222222,0.09777777777777778,0.03,-0.69,2.72,10.31,11.685465728
1671151913.26404,0,-44.4141845703125,195.42822265625,68.733154296875,1,75.0975341796875,116.460693359375,-297.56787109375,2,128.980712890625,117.3818359375,-297.444091796875,3,237.3349609375,196.52490234375,70.760498046875,0.4382881476107409,0.43013439568539336,48.4,48.4,-0.03222222222222222,0.09777777777777778,0.03,-0.69,2.72,10.31,11.685465728
1671151913.2739973,0,-44.3470458984375,195.570068359375,72.06640625,1,74.9654541015625,116.340087890625,-294.213134765625,2,129.0986328125,117.368896484375,-294.291748046875,3,237.309814453125,196.56103515625,74.04345703125,0.4382881476107409,0.43013439568539336,48.4,48.4,-0.03222222222222222,0.09777777777777778,0.03,-0.69,2.72,10.31,11.685465728
1671151913.284005,0,-44.33135986328125,195.6806640625,75.171630859375,1,74.739990234375,116.423583984375,-291.06982421875,2,128.7735595703125,117.4462890625,-291.20849609375,3,237.2110595703125,196.570556640625,77.066650390625,0.6227068308634548,0.6138815934854315,48.4,48.4,0.0,0.016666666666666666,0.06444444444444444,-0.67,2.79,9.11,11.626182080000001
1671151913.29401,0,-44.3214111328125,195.743408203125,78.7841796875,1,74.6612548828125,116.472412109375,-287.642333984375,2,128.86279296875,117.43896484375,-287.816650390625,3,237.230224609375,196.616455078125,80.47900390625,0.6227068308634548,0.6138815934854315,48.4,48.4,0.0,0.016666666666666666,0.06444444444444444,-0.67,2.79,9.11,11.626182080000001
1671151913.3039713,0,-44.212158203125,195.782470703125,81.8330078125,1,74.4781494140625,116.468017578125,-284.66845703125,2,128.4554443359375,117.455810546875,-284.7568359375,3,237.3348388671875,196.578369140625,83.465576171875,0.6227068308634548,0.6138815934854315,48.4,48.4,0.0,0.016666666666666666,0.06444444444444444,-0.67,2.79,9.11,11.626182080000001
1671151913.3140376,0,-44.1767578125,195.823486328125,85.232177734375,1,74.3294677734375,116.577392578125,-281.24169921875,2,128.2470703125,117.619873046875,-281.359619140625,3,237.4608154296875,196.64306640625,86.82421875,0.6227068308634548,0.6138815934854315,48.4,48.4,0.0,0.016666666666666666,0.06444444444444444,-0.67,2.79,9.11,11.626182080000001
1671151913.3240566,0,-44.175048828125,195.885986328125,88.31884765625,1,74.3382568359375,116.51806640625,-278.208740234375,2,128.1002197265625,117.636474609375,-278.404052734375,3,237.446533203125,196.52783203125,89.75537109375,0.6227068308634548,0.6138815934854315,48.4,48.4,0.0,0.016666666666666666,0.06444444444444444,-0.67,2.79,9.11,11.626182080000001
1671151913.3340263,0,-44.30548095703125,195.783447265625,91.995361328125,1,74.0606689453125,116.52978515625,-274.764892578125,2,127.8419189453125,117.77197265625,-274.921142578125,3,237.258544921875,196.601318359375,93.09130859375,0.8094277499539138,0.7790190515970293,90.0,90.0,-0.008888888888888889,-0.008888888888888889,0.04666666666666667,-0.88,2.09,9.77,11.642649760000001
1671151913.3440273,0,-43.96099853515625,195.949951171875,95.221435546875,1,73.626708984375,116.56591796875,-271.248291015625,2,127.531005859375,117.671630859375,-271.476806640625,3,237.2889404296875,196.6845703125,96.261962890625,0.8094277499539138,0.7790190515970293,90.0,90.0,-0.008888888888888889,-0.008888888888888889,0.04666666666666667,-0.88,2.09,9.77,11.642649760000001
1671151913.3539925,0,-44.05316162109375,196.125244140625,98.500732421875,1,73.5364990234375,116.6025390625,-267.81640625,2,127.3592529296875,117.759765625,-268.0986328125,3,237.4227294921875,196.795166015625,99.42578125,0.8094277499539138,0.7790190515970293,90.0,90.0,-0.008888888888888889,-0.008888888888888889,0.04666666666666667,-0.88,2.09,9.77,11.642649760000001
1671151913.3640797,0,-44.146728515625,195.968017578125,102.592041015625,1,73.35498046875,116.472900390625,-264.021728515625,2,127.206298828125,117.726806640625,-264.364013671875,3,237.4423828125,196.671875,103.3662109375,0.8094277499539138,0.7790190515970293,90.0,90.0,-0.008888888888888889,-0.008888888888888889,0.04666666666666667,-0.88,2.09,9.77,11.642649760000001
1671151913.3740556,0,-44.14508056640625,195.80224609375,106.74560546875,1,73.2783203125,116.510009765625,-259.824951171875,2,127.2862548828125,117.66748046875,-260.267578125,3,237.447021484375,196.927001953125,107.221923828125,0.8094277499539138,0.7790190515970293,90.0,90.0,-0.008888888888888889,-0.008888888888888889,0.04666666666666667,-0.88,2.09,9.77,11.642649760000001
1671151913.3840833,0,-43.96575927734375,196.18798828125,110.6044921875,1,73.308349609375,116.501708984375,-255.959228515625,2,127.2261962890625,117.511474609375,-256.20068359375,3,237.4979248046875,196.922119140625,111.257568359375,1.0095783780978862,0.99346272723367,90.0,90.0,0.04111111111111111,-0.11444444444444445,0.08222222222222222,8.17,2.42,7.78,11.487853568
1671151913.3940542,0,-43.789306640625,196.138916015625,115.203125,1,73.3101806640625,116.625732421875,-251.441162109375,2,127.155029296875,117.6787109375,-251.398193359375,3,237.5150146484375,196.759765625,115.853759765625,1.0095783780978862,0.99346272723367,90.0,90.0,0.04111111111111111,-0.11444444444444445,0.08222222222222222,8.17,2.42,7.78,11.487853568
1671151913.4040942,0,-43.82891845703125,196.420166015625,119.50634765625,1,73.353271484375,116.50146484375,-246.90478515625,2,127.2091064453125,117.520751953125,-247.03125,3,237.5478515625,196.958251953125,120.09912109375,1.0095783780978862,0.99346272723367,90.0,90.0,0.04111111111111111,-0.11444444444444445,0.08222222222222222,8.17,2.42,7.78,11.487853568
1671151913.4140687,0,-43.998291015625,196.268310546875,124.70703125,1,73.236328125,116.44140625,-241.91162109375,2,127.089599609375,117.4658203125,-242.10595703125,3,237.58203125,196.81640625,125.321533203125,1.0095783780978862,0.99346272723367,90.0,90.0,0.04111111111111111,-0.11444444444444445,0.08222222222222222,8.17,2.42,7.78,11.487853568
1671151913.4241612,0,-43.94696044921875,196.108642578125,130.282958984375,1,73.3406982421875,116.4013671875,-236.4560546875,2,127.272216796875,117.43115234375,-236.83447265625,3,237.6314697265625,196.785400390625,130.768798828125,1.0095783780978862,0.99346272723367,90.0,90.0,0.04111111111111111,-0.11444444444444445,0.08222222222222222,8.17,2.42,7.78,11.487853568
1671151913.4340577,0,-43.72955322265625,196.258056640625,135.342041015625,1,73.16357421875,116.367431640625,-231.370849609375,2,126.9990234375,117.355712890625,-231.6865234375,3,237.613037109375,196.775390625,135.700439453125,1.3327547338213677,1.3363040140712248,90.0,90.0,-0.07555555555555556,-0.09666666666666666,0.017777777777777778,2.35,1.0,7.62,11.428569920000001
1671151913.44415,0,-43.815673828125,196.38232421875,141.553466796875,1,73.0286865234375,116.390380859375,-225.3720703125,2,127.263427734375,117.274169921875,-225.745361328125,3,237.674072265625,196.90869140625,141.728515625,1.3327547338213677,1.3363040140712248,90.0,90.0,-0.07555555555555556,-0.09666666666666666,0.017777777777777778,2.35,1.0,7.62,11.428569920000001
1671151913.4540472,0,-43.5732421875,196.461181640625,146.91748046875,1,73.0936279296875,116.3359375,-219.984619140625,2,127.38427734375,117.26123046875,-220.458740234375,3,237.8929443359375,196.8486328125,147.287353515625,1.3327547338213677,1.3363040140712248,90.0,90.0,-0.07555555555555556,-0.09666666666666666,0.017777777777777778,2.35,1.0,7.62,11.428569920000001
1671151913.4640496,0,-43.7322998046875,196.2998046875,153.104736328125,1,72.9833984375,116.283447265625,-213.716796875,2,127.0177001953125,117.374755859375,-214.154541015625,3,237.7923583984375,196.7578125,153.429443359375,1.3327547338213677,1.3363040140712248,90.0,90.0,-0.07555555555555556,-0.09666666666666666,0.017777777777777778,2.35,1.0,7.62,11.428569920000001
1671151913.4740133,0,-43.900390625,196.494384765625,158.845458984375,1,72.9765625,116.243896484375,-208.052734375,2,126.9119873046875,117.216796875,-208.426025390625,3,237.7646484375,196.722412109375,159.0107421875,1.3327547338213677,1.3363040140712248,90.0,90.0,-0.07555555555555556,-0.09666666666666666,0.017777777777777778,2.35,1.0,7.62,11.428569920000001
1671151913.4840372,0,-43.7384033203125,196.457275390625,165.260498046875,1,72.6226806640625,116.151123046875,-201.549072265625,2,126.6240234375,117.232421875,-202.173828125,3,237.8377685546875,196.69921875,165.2236328125,1.6578496194096366,1.6117089761614933,90.0,90.0,-0.08555555555555555,-0.11444444444444445,0.012222222222222223,-1.66,1.02,5.86,11.563604896000001
1671151913.49401,0,-43.44598388671875,196.7841796875,171.9638671875,1,72.263916015625,116.310546875,-195.084228515625,2,126.3321533203125,117.097900390625,-195.6005859375,3,238.23779296875,196.794677734375,171.573486328125,1.6578496194096366,1.6117089761614933,90.0,90.0,-0.08555555555555555,-0.11444444444444445,0.012222222222222223,-1.66,1.02,5.86,11.563604896000001
1671151913.50399,0,-43.389892578125,196.605712890625,177.9609375,1,71.8394775390625,116.35205078125,-189.3017578125,2,125.8621826171875,117.069091796875,-189.746337890625,3,238.0596923828125,196.572021484375,177.429931640625,1.6578496194096366,1.6117089761614933,90.0,90.0,-0.08555555555555555,-0.11444444444444445,0.012222222222222223,-1.66,1.02,5.86,11.563604896000001
1671151913.5140235,0,-43.33465576171875,196.460693359375,184.703857421875,1,71.3734130859375,116.287841796875,-182.417236328125,2,125.4127197265625,116.8974609375,-183.0810546875,3,237.9505615234375,196.448486328125,183.900390625,1.6578496194096366,1.6117089761614933,90.0,90.0,-0.08555555555555555,-0.11444444444444445,0.012222222222222223,-1.66,1.02,5.86,11.563604896000001
1671151913.5240247,0,-43.11248779296875,196.5478515625,191.53955078125,1,71.4166259765625,116.378662109375,-175.93359375,2,125.4783935546875,116.59716796875,-176.458251953125,3,238.2252197265625,196.293701171875,190.444580078125,1.6578496194096366,1.6117089761614933,90.0,90.0,-0.08555555555555555,-0.11444444444444445,0.012222222222222223,-1.66,1.02,5.86,11.563604896000001
1671151913.5339873,0,-42.922119140625,196.650634765625,197.55322265625,1,71.1414794921875,116.281005859375,-170.069580078125,2,125.0565185546875,116.621337890625,-170.409912109375,3,238.1512451171875,196.3623046875,196.1416015625,2.017238226330985,1.9429911205637025,90.0,90.0,-0.043333333333333335,0.01888888888888889,0.10666666666666667,0.6,1.46,10.11,11.613007936
1671151913.54401,0,-42.72088623046875,196.830322265625,204.29052734375,1,70.7171630859375,116.208740234375,-163.404541015625,2,124.8289794921875,116.5615234375,-163.904052734375,3,238.3399658203125,196.327880859375,202.616943359375,2.017238226330985,1.9429911205637025,90.0,90.0,-0.043333333333333335,0.01888888888888889,0.10666666666666667,0.6,1.46,10.11,11.613007936
1671151913.5539947,0,-42.95721435546875,196.467529296875,210.234375,1,70.167236328125,116.32275390625,-157.695068359375,2,124.545166015625,116.519775390625,-158.24609375,3,238.402099609375,196.134765625,208.373291015625,2.017238226330985,1.9429911205637025,90.0,90.0,-0.043333333333333335,0.01888888888888889,0.10666666666666667,0.6,1.46,10.11,11.613007936
1671151913.5641437,0,-42.8447265625,196.604736328125,217.1474609375,1,69.5906982421875,116.684814453125,-150.842529296875,2,124.2293701171875,116.543212890625,-151.608154296875,3,238.5167236328125,196.4072265625,214.852783203125,2.017238226330985,1.9429911205637025,90.0,90.0,-0.043333333333333335,0.01888888888888889,0.10666666666666667,0.6,1.46,10.11,11.613007936
1671151913.5741477,0,-42.71337890625,196.608642578125,223.953857421875,1,69.2276611328125,116.734130859375,-144.32275390625,2,123.8345947265625,116.466064453125,-145.33154296875,3,238.5721435546875,196.431640625,221.1748046875,2.017238226330985,1.9429911205637025,90.0,90.0,-0.043333333333333335,0.01888888888888889,0.10666666666666667,0.6,1.46,10.11,11.613007936
1671151913.5841494,0,-42.90423583984375,196.427734375,230.211181640625,1,69.29638671875,116.282470703125,-138.44482421875,2,123.5184326171875,116.380615234375,-139.254638671875,3,238.728515625,196.354248046875,226.994140625,2.3693364197661406,2.2883264962254812,90.0,90.0,-0.006666666666666667,-0.012222222222222223,0.11333333333333333,1.99,1.64,14.12,11.619595008000001
1671151913.5940642,0,-42.42425537109375,196.633544921875,236.84814453125,1,68.6103515625,116.576416015625,-131.656005859375,2,123.2501220703125,116.3974609375,-132.7158203125,3,238.896240234375,196.4892578125,233.362548828125,2.3693364197661406,2.2883264962254812,90.0,90.0,-0.006666666666666667,-0.012222222222222223,0.11333333333333333,1.99,1.64,14.12,11.619595008000001
1671151913.6041777,0,-42.225830078125,196.559326171875,242.951416015625,1,68.262939453125,116.71484375,-125.740966796875,2,122.7327880859375,116.61181640625,-126.80419921875,3,239.1412353515625,196.40478515625,239.130859375,2.3693364197661406,2.2883264962254812,90.0,90.0,-0.006666666666666667,-0.012222222222222223,0.11333333333333333,1.99,1.64,14.12,11.619595008000001
1671151913.6141794,0,-42.13006591796875,196.498779296875,249.718017578125,1,68.0751953125,116.482666015625,-119.1259765625,2,122.3253173828125,116.492919921875,-120.200439453125,3,239.2193603515625,196.318115234375,245.47265625,2.3693364197661406,2.2883264962254812,90.0,90.0,-0.006666666666666667,-0.012222222222222223,0.11333333333333333,1.99,1.64,14.12,11.619595008000001
1671151913.6240213,0,-41.9161376953125,196.44873046875,256.470947265625,1,67.9964599609375,116.302001953125,-112.408935546875,2,122.1636962890625,116.675048828125,-113.76953125,3,239.4443359375,196.285400390625,251.888671875,2.3693364197661406,2.2883264962254812,90.0,90.0,-0.006666666666666667,-0.012222222222222223,0.11333333333333333,1.99,1.64,14.12,11.619595008000001
1671151913.6340013,0,-41.9111328125,196.455322265625,262.640380859375,1,67.822265625,116.4306640625,-106.623779296875,2,121.89697265625,116.791259765625,-107.692626953125,3,239.381591796875,196.291015625,257.757568359375,2.74249047846734,2.6258438626882508,90.0,90.0,-0.04666666666666667,0.017777777777777778,0.13444444444444445,2.29,1.23,9.32,11.626182080000001
1671151913.6440122,0,-41.756591796875,196.341552734375,269.455078125,1,67.57763671875,116.2158203125,-99.991943359375,2,121.406494140625,116.5224609375,-101.23828125,3,239.560546875,196.0673828125,264.14208984375,2.74249047846734,2.6258438626882508,90.0,90.0,-0.04666666666666667,0.017777777777777778,0.13444444444444445,2.29,1.23,9.32,11.626182080000001
1671151913.6540256,0,-41.54656982421875,196.48583984375,275.617919921875,1,67.2156982421875,116.07470703125,-93.87939453125,2,121.171875,116.54736328125,-95.351318359375,3,239.8272705078125,196.32177734375,269.902099609375,2.74249047846734,2.6258438626882508,90.0,90.0,-0.04666666666666667,0.017777777777777778,0.13444444444444445,2.29,1.23,9.32,11.626182080000001
1671151913.6640217,0,-41.24017333984375,196.353271484375,282.345703125,1,66.901123046875,116.266357421875,-87.344482421875,2,120.8056640625,116.5361328125,-88.75537109375,3,240.093017578125,196.199462890625,276.2822265625,2.74249047846734,2.6258438626882508,90.0,90.0,-0.04666666666666667,0.017777777777777778,0.13444444444444445,2.29,1.23,9.32,11.626182080000001
1671151913.6740034,0,-40.77557373046875,196.486083984375,289.239013671875,1,66.726806640625,116.027099609375,-80.667236328125,2,120.510498046875,116.366455078125,-81.99365234375,3,240.1856689453125,196.164306640625,282.763427734375,2.74249047846734,2.6258438626882508,90.0,90.0,-0.04666666666666667,0.017777777777777778,0.13444444444444445,2.29,1.23,9.32,11.626182080000001
1671151913.6840823,0,-41.125732421875,196.86669921875,295.20703125,1,66.3499755859375,115.93310546875,-74.742431640625,2,120.2025146484375,116.3818359375,-76.227783203125,3,240.3941650390625,196.2548828125,288.4423828125,3.0961234957943256,2.9708434956236918,90.0,90.0,-0.0077777777777777776,0.05,0.13111111111111112,-2.06,3.07,14.07,11.626182080000001
1671151913.694093,0,-40.6126708984375,196.43212890625,302.016845703125,1,66.3978271484375,115.521728515625,-68.417236328125,2,119.8642578125,116.33935546875,-69.711181640625,3,240.9932861328125,195.911865234375,294.794677734375,3.0961234957943256,2.9708434956236918,90.0,90.0,-0.0077777777777777776,0.05,0.13111111111111112,-2.06,3.07,14.07,11.626182080000001
1671151913.7040963,0,-40.28729248046875,196.29638671875,308.14892578125,1,66.0948486328125,115.309326171875,-62.30419921875,2,119.60595703125,116.252197265625,-63.8603515625,3,241.234619140625,195.758056640625,300.545166015625,3.0961234957943256,2.9708434956236918,90.0,90.0,-0.0077777777777777776,0.05,0.13111111111111112,-2.06,3.07,14.07,11.626182080000001
1671151913.7141087,0,-40.31744384765625,196.34033203125,314.934326171875,1,65.77099609375,115.580322265625,-55.749755859375,2,119.3951416015625,116.27685546875,-57.331298828125,3,241.4932861328125,195.656005859375,307.010498046875,3.0961234957943256,2.9708434956236918,90.0,90.0,-0.0077777777777777776,0.05,0.13111111111111112,-2.06,3.07,14.07,11.626182080000001
1671151913.7240973,0,-40.495361328125,196.1796875,321.749755859375,1,65.4610595703125,115.46728515625,-48.915283203125,2,119.1845703125,116.222900390625,-50.733154296875,3,241.683837890625,195.965087890625,313.14404296875,3.0961234957943256,2.9708434956236918,90.0,90.0,-0.0077777777777777776,0.05,0.13111111111111112,-2.06,3.07,14.07,11.626182080000001
1671151913.7341247,0,-39.94183349609375,195.8828125,327.924072265625,1,65.388916015625,115.4716796875,-43.179931640625,2,118.8612060546875,116.25732421875,-44.962158203125,3,241.8089599609375,195.80126953125,318.98486328125,3.4799733584917165,3.312773480775472,90.0,90.0,0.06666666666666667,-0.024444444444444446,0.1511111111111111,-0.87,4.1,10.25,11.599833792
1671151913.7440598,0,-40.25347900390625,196.065185546875,334.644775390625,1,65.1168212890625,115.449462890625,-36.393310546875,2,118.6060791015625,116.243896484375,-38.236572265625,3,242.0582275390625,195.807373046875,325.449462890625,3.4799733584917165,3.312773480775472,90.0,90.0,0.06666666666666667,-0.024444444444444446,0.1511111111111111,-0.87,4.1,10.25,11.599833792
1671151913.7540758,0,-40.5401611328125,195.57568359375,340.788330078125,1,64.82470703125,115.278564453125,-30.375732421875,2,118.4263916015625,116.109619140625,-32.30859375,3,242.2236328125,195.79345703125,331.295166015625,3.4799733584917165,3.312773480775472,90.0,90.0,0.06666666666666667,-0.024444444444444446,0.1511111111111111,-0.87,4.1,10.25,11.599833792
1671151913.7640254,0,-40.04461669921875,195.469970703125,347.576171875,1,64.633056640625,115.286865234375,-23.7470703125,2,118.2188720703125,116.128173828125,-25.7705078125,3,242.402587890625,195.92041015625,337.590087890625,3.4799733584917165,3.312773480775472,90.0,90.0,0.06666666666666667,-0.024444444444444446,0.1511111111111111,-0.87,4.1,10.25,11.599833792
1671151913.7740312,0,-40.227294921875,195.3212890625,354.34619140625,1,64.60986328125,115.2861328125,-17.148681640625,2,118.0367431640625,116.284423828125,-19.23095703125,3,242.5391845703125,196.03173828125,343.966796875,3.4799733584917165,3.312773480775472,90.0,90.0,0.06666666666666667,-0.024444444444444446,0.1511111111111111,-0.87,4.1,10.25,11.599833792
1671151913.78401,0,-39.5806884765625,195.62646484375,360.228759765625,1,64.4852294921875,115.137451171875,-11.201171875,2,117.846923828125,116.190673828125,-13.435302734375,3,242.9058837890625,195.760009765625,349.644775390625,3.830728581021521,3.6512021489240154,90.0,90.0,-0.25555555555555554,0.024444444444444446,0.12111111111111111,-1.08,1.5,7.83,11.626182080000001
1671151913.793993,0,-39.18017578125,195.71630859375,367.13037109375,1,64.0357666015625,115.421630859375,-4.51904296875,2,117.657470703125,116.146728515625,-6.786376953125,3,243.12060546875,196.001708984375,356.05859375,3.830728581021521,3.6512021489240154,90.0,90.0,-0.25555555555555554,0.024444444444444446,0.12111111111111111,-1.08,1.5,7.83,11.626182080000001
1671151913.8040564,0,-39.2974853515625,195.8798828125,372.975341796875,1,63.725341796875,115.041015625,1.324951171875,2,117.2069091796875,115.952880859375,-1.007568359375,3,243.2320556640625,196.4375,361.644775390625,3.830728581021521,3.6512021489240154,90.0,90.0,-0.25555555555555554,0.024444444444444446,0.12111111111111111,-1.08,1.5,7.83,11.626182080000001
1671151913.8140345,0,-39.14697265625,195.451416015625,379.97265625,1,63.6300048828125,115.053466796875,7.9951171875,2,117.109375,116.148193359375,5.594482421875,3,243.6220703125,196.5029296875,368.10791015625,3.830728581021521,3.6512021489240154,90.0,90.0,-0.25555555555555554,0.024444444444444446,0.12111111111111111,-1.08,1.5,7.83,11.626182080000001
1671151913.82414,0,-38.82708740234375,195.0107421875,386.9326171875,1,63.42138671875,115.08154296875,14.67431640625,2,116.756591796875,116.2099609375,12.622802734375,3,244.0760498046875,196.063232421875,374.51123046875,3.830728581021521,3.6512021489240154,90.0,90.0,-0.25555555555555554,0.024444444444444446,0.12111111111111111,-1.08,1.5,7.83,11.626182080000001
1671151913.8341594,0,-38.54083251953125,195.11962890625,393.027099609375,1,63.492431640625,115.1982421875,20.594970703125,2,116.8597412109375,116.24658203125,18.119140625,3,244.5570068359375,195.750244140625,380.3369140625,4.2049857943949736,3.983923190724815,90.0,90.0,0.011111111111111112,0.014444444444444444,0.1322222222222222,-1.47,2.0,9.15,11.613007936
1671151913.844094,0,-37.40069580078125,195.456787109375,399.625,1,63.536865234375,115.12060546875,27.238037109375,2,116.7596435546875,116.304443359375,24.6650390625,3,245.0283203125,196.000244140625,386.6875,4.2049857943949736,3.983923190724815,90.0,90.0,0.011111111111111112,0.014444444444444444,0.1322222222222222,-1.47,2.0,9.15,11.613007936
1671151913.85415,0,-37.0911865234375,195.4052734375,405.6572265625,1,63.34033203125,115.35107421875,33.13623046875,2,116.6629638671875,116.36328125,30.543701171875,3,245.2744140625,195.941162109375,392.486083984375,4.2049857943949736,3.983923190724815,90.0,90.0,0.011111111111111112,0.014444444444444444,0.1322222222222222,-1.47,2.0,9.15,11.613007936
1671151913.8641114,0,-37.02093505859375,195.36767578125,412.34619140625,1,63.1500244140625,115.34619140625,39.759033203125,2,116.4827880859375,116.445556640625,37.097900390625,3,245.4984130859375,195.98681640625,398.8486328125,4.2049857943949736,3.983923190724815,90.0,90.0,0.011111111111111112,0.014444444444444444,0.1322222222222222,-1.47,2.0,9.15,11.613007936
1671151913.8740509,0,-36.524658203125,195.152099609375,419.382568359375,1,63.013671875,115.384765625,46.3896484375,2,116.2861328125,116.397216796875,43.633056640625,3,245.8531494140625,195.79052734375,405.23388671875,4.2049857943949736,3.983923190724815,90.0,90.0,0.011111111111111112,0.014444444444444444,0.1322222222222222,-1.47,2.0,9.15,11.613007936
1671151913.8840654,0,-36.66339111328125,195.412353515625,425.3916015625,1,63.064208984375,115.22705078125,52.420166015625,2,116.3404541015625,116.4609375,49.510986328125,3,246.2740478515625,195.914794921875,410.9755859375,4.564038658589984,4.328443191194059,90.0,90.0,0.1922222222222222,0.09111111111111111,0.13555555555555557,-2.41,1.7,9.31,11.632769152
1671151913.8940575,0,-35.75238037109375,195.01513671875,432.244140625,1,63.0059814453125,115.33447265625,58.9814453125,2,116.27685546875,116.38037109375,56.1240234375,3,246.71240234375,195.829345703125,417.472900390625,4.564038658589984,4.328443191194059,90.0,90.0,0.1922222222222222,0.09111111111111111,0.13555555555555557,-2.41,1.7,9.31,11.632769152
1671151913.9040968,0,-35.49249267578125,195.134033203125,439.111083984375,1,63.0631103515625,115.37158203125,65.767822265625,2,116.325927734375,116.377685546875,62.823486328125,3,247.1380615234375,195.792236328125,423.87646484375,4.564038658589984,4.328443191194059,90.0,90.0,0.1922222222222222,0.09111111111111111,0.13555555555555557,-2.41,1.7,9.31,11.632769152
1671151913.9141014,0,-34.9869384765625,195.630859375,444.94580078125,1,63.03369140625,115.287841796875,71.6298828125,2,116.309814453125,116.451171875,68.72021484375,3,247.9293212890625,195.634521484375,429.691162109375,4.564038658589984,4.328443191194059,90.0,90.0,0.1922222222222222,0.09111111111111111,0.13555555555555557,-2.41,1.7,9.31,11.632769152
1671151913.9241183,0,-34.20013427734375,195.34423828125,451.615234375,1,62.933349609375,115.35302734375,78.181396484375,2,116.255859375,116.341064453125,75.144287109375,3,247.8033447265625,195.72119140625,436.105224609375,4.9297104508185114,4.651619546917541,90.0,90.0,-0.04111111111111111,0.2733333333333333,0.13111111111111112,-0.31,3.93,10.28,11.603127328000001
1671151913.9340537,0,-34.21917724609375,195.435302734375,457.706298828125,1,62.995849609375,115.100341796875,84.1640625,2,116.2421875,116.20947265625,81.02978515625,3,248.2542724609375,195.708984375,441.780517578125,4.9297104508185114,4.651619546917541,90.0,90.0,-0.04111111111111111,0.2733333333333333,0.13111111111111112,-0.31,3.93,10.28,11.603127328000001
1671151913.9439986,0,-33.82830810546875,195.268310546875,464.424072265625,1,62.9024658203125,114.63427734375,90.850341796875,2,116.240234375,116.134033203125,87.583984375,3,248.593505859375,195.825927734375,448.0791015625,4.9297104508185114,4.651619546917541,90.0,90.0,-0.04111111111111111,0.2733333333333333,0.13111111111111112,-0.31,3.93,10.28,11.603127328000001
1671151913.954054,0,-33.370361328125,194.739501953125,470.60791015625,1,62.8424072265625,114.44482421875,97.065185546875,2,116.1046142578125,116.19482421875,93.433349609375,3,248.8199462890625,196.01123046875,453.82958984375,4.9297104508185114,4.651619546917541,90.0,90.0,-0.04111111111111111,0.2733333333333333,0.13111111111111112,-0.31,3.93,10.28,11.603127328000001
1671151913.964053,0,-33.15966796875,195.062744140625,477.217041015625,1,62.7972412109375,114.3701171875,103.617431640625,2,116.2099609375,116.062744140625,99.943359375,3,249.4688720703125,195.857177734375,460.21630859375,4.9297104508185114,4.651619546917541,90.0,90.0,-0.04111111111111111,0.2733333333333333,0.13111111111111112,-0.31,3.93,10.28,11.603127328000001
1671151913.9742038,0,-32.4019775390625,194.65625,484.108642578125,1,62.7249755859375,114.51904296875,110.37939453125,2,116.206787109375,116.165283203125,106.586669921875,3,249.9117431640625,195.723388671875,466.7490234375,5.296005765253096,5.011967418771283,90.0,90.0,-0.014444444444444444,-0.03777777777777778,0.11555555555555555,0.56,1.48,6.95,11.619595008000001
1671151913.9841073,0,-32.0338134765625,194.494873046875,490.314697265625,1,62.822998046875,114.495361328125,116.312255859375,2,116.215087890625,116.10498046875,112.538330078125,3,250.2777099609375,195.96826171875,472.51513671875,5.296005765253096,5.011967418771283,90.0,90.0,-0.014444444444444444,-0.03777777777777778,0.11555555555555555,0.56,1.48,6.95,11.619595008000001
1671151913.9941015,0,-31.849609375,194.984619140625,496.857177734375,1,62.74658203125,114.350341796875,122.963623046875,2,116.1761474609375,116.04931640625,119.068115234375,3,250.5430908203125,196.26220703125,478.76220703125,5.296005765253096,5.011967418771283,90.0,90.0,-0.014444444444444444,-0.03777777777777778,0.11555555555555555,0.56,1.48,6.95,11.619595008000001
1671151914.0041292,0,-31.26873779296875,194.66650390625,503.5869140625,1,62.7349853515625,114.267822265625,129.526611328125,2,116.063232421875,116.082275390625,125.58740234375,3,250.9610595703125,196.278564453125,485.1162109375,5.296005765253096,5.011967418771283,90.0,90.0,-0.014444444444444444,-0.03777777777777778,0.11555555555555555,0.56,1.48,6.95,11.619595008000001
1671151914.014052,0,-31.0133056640625,194.729736328125,509.533935546875,1,62.763916015625,114.071533203125,135.410400390625,2,116.12890625,115.8779296875,131.427978515625,3,251.5079345703125,195.953125,490.703125,5.296005765253096,5.011967418771283,90.0,90.0,-0.014444444444444444,-0.03777777777777778,0.11555555555555555,0.56,1.48,6.95,11.619595008000001
1671151914.024058,0,-30.49188232421875,194.938720703125,516.277099609375,1,62.9036865234375,114.324462890625,141.935791015625,2,116.1029052734375,115.959228515625,138.001220703125,3,252.107177734375,195.562744140625,497.18359375,5.296005765253096,5.011967418771283,90.0,90.0,-0.014444444444444444,-0.03777777777777778,0.11555555555555555,0.56,1.48,6.95,11.619595008000001
1671151914.0339985,0,-30.05126953125,195.155517578125,522.369140625,1,62.984130859375,114.23291015625,147.881103515625,2,116.3604736328125,115.877685546875,143.753662109375,3,252.760009765625,195.60595703125,502.968505859375,5.296005765253096,5.011967418771283,90.0,90.0,-0.014444444444444444,-0.03777777777777778,0.11555555555555555,0.56,1.48,6.95,11.619595008000001
1671151914.0440016,0,-29.27569580078125,194.939453125,529.006103515625,1,63.3134765625,114.26708984375,154.621826171875,2,116.5252685546875,115.935546875,150.46728515625,3,253.327880859375,195.68896484375,509.404541015625,5.666617771883452,5.358022243132357,90.0,90.0,0.028888888888888888,-0.035555555555555556,0.13444444444444445,-0.57,3.44,7.01,11.603127328000001
1671151914.054029,0,-28.33062744140625,194.607177734375,535.252197265625,1,63.322021484375,114.3173828125,160.59375,2,116.7406005859375,115.87890625,156.3818359375,3,254.0194091796875,195.3779296875,515.0771484375,5.666617771883452,5.358022243132357,90.0,90.0,0.028888888888888888,-0.035555555555555556,0.13444444444444445,-0.57,3.44,7.01,11.603127328000001
1671151914.0640604,0,-28.29437255859375,194.489501953125,542.064697265625,1,63.4752197265625,114.167724609375,167.32666015625,2,116.834228515625,115.869873046875,163.032958984375,3,254.4229736328125,195.44384765625,521.60302734375,5.666617771883452,5.358022243132357,90.0,90.0,0.028888888888888888,-0.035555555555555556,0.13444444444444445,-0.57,3.44,7.01,11.603127328000001
1671151914.0740004,0,-27.45361328125,194.297607421875,548.681640625,1,63.7264404296875,114.09326171875,174.080078125,2,116.7945556640625,115.97412109375,169.4853515625,3,254.928466796875,195.390625,527.99462890625,5.666617771883452,5.358022243132357,90.0,90.0,0.028888888888888888,-0.035555555555555556,0.13444444444444445,-0.57,3.44,7.01,11.603127328000001
1671151914.084,0,-27.32489013671875,194.74755859375,554.64453125,1,63.7274169921875,114.025634765625,180.063232421875,2,117.05078125,115.759765625,175.51123046875,3,255.20458984375,195.230712890625,533.7216796875,6.046918354330986,5.6964509112809,90.0,90.0,0.08222222222222222,-0.05333333333333334,0.12555555555555556,-1.69,1.48,8.23,11.645943296
1671151914.0940018,0,-26.62957763671875,194.76513671875,561.179931640625,1,63.82080078125,114.3203125,186.33154296875,2,117.2071533203125,115.699951171875,182.123046875,3,255.626953125,195.076904296875,540.241943359375,6.046918354330986,5.6964509112809,90.0,90.0,0.08222222222222222,-0.05333333333333334,0.12555555555555556,-1.69,1.48,8.23,11.645943296
1671151914.103994,0,-25.85784912109375,194.082763671875,567.51171875,1,63.9571533203125,113.827880859375,192.63916015625,2,117.3477783203125,115.630126953125,187.966552734375,3,256.5458984375,195.21142578125,545.850341796875,6.046918354330986,5.6964509112809,90.0,90.0,0.08222222222222222,-0.05333333333333334,0.12555555555555556,-1.69,1.48,8.23,11.645943296
1671151914.1140172,0,-25.78741455078125,194.611328125,574.16943359375,1,64.239501953125,114.03076171875,199.41845703125,2,117.5509033203125,115.84716796875,194.64208984375,3,257.166015625,195.565673828125,552.085205078125,6.046918354330986,5.6964509112809,90.0,90.0,0.08222222222222222,-0.05333333333333334,0.12555555555555556,-1.69,1.48,8.23,11.645943296
1671151914.1239655,0,-24.78680419921875,194.183837890625,581.048583984375,1,64.2735595703125,113.83447265625,205.990478515625,2,117.6728515625,115.680908203125,201.14697265625,3,258.1964111328125,195.722412109375,558.459228515625,6.046918354330986,5.6964509112809,90.0,90.0,0.08222222222222222,-0.05333333333333334,0.12555555555555556,-1.69,1.48,8.23,11.645943296
1671151914.1339855,0,-24.42376708984375,194.85791015625,587.08642578125,1,64.465576171875,113.698974609375,212.198486328125,2,117.8438720703125,115.642822265625,207.0888671875,3,258.727783203125,195.747802734375,564.202880859375,6.400119702438394,6.041498507462961,90.0,90.0,-0.04,-0.022222222222222223,0.11777777777777777,2.28,2.53,11.16,11.622888544
1671151914.144012,0,-23.08172607421875,194.775390625,593.85302734375,1,64.7664794921875,113.894287109375,218.669189453125,2,118.0704345703125,115.615234375,213.740966796875,3,259.018310546875,195.5341796875,570.601806640625,6.400119702438394,6.041498507462961,90.0,90.0,-0.04,-0.022222222222222223,0.11777777777777777,2.28,2.53,11.16,11.622888544
1671151914.1539655,0,-22.41473388671875,194.64990234375,599.971923828125,1,64.8187255859375,113.872802734375,224.514404296875,2,118.1114501953125,115.697021484375,219.40576171875,3,259.4208984375,195.35498046875,576.32568359375,6.400119702438394,6.041498507462961,90.0,90.0,-0.04,-0.022222222222222223,0.11777777777777777,2.28,2.53,11.16,11.622888544
1671151914.1640317,0,-21.62213134765625,194.9853515625,606.45751953125,1,65.0228271484375,113.82421875,231.141357421875,2,118.3846435546875,115.63134765625,226.048828125,3,260.1519775390625,195.16943359375,582.76416015625,6.400119702438394,6.041498507462961,90.0,90.0,-0.04,-0.022222222222222223,0.11777777777777777,2.28,2.53,11.16,11.622888544
1671151914.173988,0,-21.051025390625,194.927001953125,613.212890625,1,65.2686767578125,113.754150390625,237.63037109375,2,118.5701904296875,115.533935546875,232.49560546875,3,260.75634765625,195.162353515625,589.03369140625,6.400119702438394,6.041498507462961,90.0,90.0,-0.04,-0.022222222222222223,0.11777777777777777,2.28,2.53,11.16,11.622888544
1671151914.1839876,0,-20.3104248046875,194.844970703125,619.159423828125,1,65.4683837890625,113.688720703125,243.689453125,2,118.661865234375,115.537353515625,238.283203125,3,261.1700439453125,195.492919921875,594.6318359375,6.400119702438394,6.041498507462961,90.0,90.0,-0.04,-0.022222222222222223,0.11777777777777777,2.28,2.53,11.16,11.622888544
1671151914.1939847,0,-19.70477294921875,194.87255859375,625.82568359375,1,65.714599609375,113.637939453125,250.229248046875,2,119.0078125,115.3681640625,244.783935546875,3,261.9241943359375,195.27685546875,601.0615234375,6.793082581993526,6.4194009275795105,70.9,70.9,-0.024444444444444446,-0.035555555555555556,0.13555555555555557,-0.03,1.31,9.66,11.596540256
1671151914.2040377,0,-19.335205078125,195.208251953125,631.82666015625,1,65.9949951171875,113.609130859375,256.208251953125,2,119.2498779296875,115.317138671875,250.794921875,3,262.476318359375,195.295654296875,606.82421875,6.793082581993526,6.4194009275795105,70.9,70.9,-0.024444444444444446,-0.035555555555555556,0.13555555555555557,-0.03,1.31,9.66,11.596540256
1671151914.214062,0,-18.1597900390625,195.043212890625,638.4306640625,1,66.195068359375,113.47607421875,262.782470703125,2,119.455078125,115.172119140625,257.3408203125,3,263.2183837890625,195.36474609375,613.17138671875,6.793082581993526,6.4194009275795105,70.9,70.9,-0.024444444444444446,-0.035555555555555556,0.13555555555555557,-0.03,1.31,9.66,11.596540256
1671151914.2240098,0,-17.6361083984375,194.732177734375,644.987548828125,1,66.40673828125,113.40087890625,269.335693359375,2,119.6544189453125,115.2783203125,263.6162109375,3,264.220947265625,195.47802734375,619.62744140625,6.793082581993526,6.4194009275795105,70.9,70.9,-0.024444444444444446,-0.035555555555555556,0.13555555555555557,-0.03,1.31,9.66,11.596540256
1671151914.2340112,0,-17.141357421875,194.62744140625,650.9580078125,1,66.684814453125,113.435302734375,274.894775390625,2,119.911376953125,115.249267578125,269.140625,3,264.820556640625,195.345947265625,625.146484375,7.1294967937840426,6.716629166881739,52.9,52.9,0.03888888888888889,-0.03,0.11,3.42,2.4,12.69,11.662410976
1671151914.2440023,0,-16.24261474609375,194.422607421875,657.0712890625,1,67.14599609375,113.74755859375,280.642333984375,2,120.4517822265625,115.455810546875,275.06298828125,3,265.5379638671875,195.197265625,631.125,7.1294967937840426,6.716629166881739,52.9,52.9,0.03888888888888889,-0.03,0.11,3.42,2.4,12.69,11.662410976
1671151914.2540338,0,-16.2611083984375,194.35400390625,662.271484375,1,67.5599365234375,114.2919921875,285.579833984375,2,120.7982177734375,116.009033203125,279.9775390625,3,265.9312744140625,195.1455078125,636.3974609375,7.1294967937840426,6.716629166881739,52.9,52.9,0.03888888888888889,-0.03,0.11,3.42,2.4,12.69,11.662410976
1671151914.2640555,0,-15.7691650390625,194.231689453125,667.46875,1,68.122802734375,114.92578125,290.72509765625,2,121.4376220703125,116.6240234375,285.28662109375,3,266.0631103515625,194.742431640625,641.79638671875,7.1294967937840426,6.716629166881739,52.9,52.9,0.03888888888888889,-0.03,0.11,3.42,2.4,12.69,11.662410976
1671151914.2741487,0,-15.46795654296875,194.545166015625,672.37060546875,1,68.7679443359375,115.6220703125,295.67431640625,2,121.984375,117.33544921875,290.16748046875,3,266.4488525390625,194.88134765625,646.711181640625,7.1294967937840426,6.716629166881739,52.9,52.9,0.03888888888888889,-0.03,0.11,3.42,2.4,12.69,11.662410976
1671151914.2841036,0,-15.4549560546875,194.603271484375,676.5693359375,1,69.1505126953125,115.6484375,299.7744140625,2,122.0498046875,117.6455078125,294.1787109375,3,266.33349609375,194.724365234375,650.992919921875,7.1294967937840426,6.716629166881739,52.9,52.9,0.03888888888888889,-0.03,0.11,3.42,2.4,12.69,11.662410976
1671151914.2940938,0,-14.55419921875,194.291259765625,681.008056640625,1,69.5555419921875,115.802490234375,304.08935546875,2,122.181640625,117.92529296875,298.546142578125,3,266.6328125,194.805908203125,655.5439453125,7.441593639538375,7.0048403158194645,6.5,6.5,-0.08777777777777777,0.17,0.04555555555555556,-5.25,2.11,9.96,11.672291584
1671151914.3040533,0,-14.08892822265625,194.20263671875,684.6552734375,1,69.7962646484375,116.155517578125,307.49072265625,2,122.41455078125,118.33154296875,301.93896484375,3,266.843505859375,194.884765625,659.1953125,7.441593639538375,7.0048403158194645,6.5,6.5,-0.08777777777777777,0.17,0.04555555555555556,-5.25,2.11,9.96,11.672291584
1671151914.3141139,0,-13.98944091796875,194.276611328125,688.30078125,1,70.1334228515625,117.069091796875,311.0654296875,2,122.7021484375,119.3291015625,305.531982421875,3,267.1551513671875,194.687255859375,662.861328125,7.441593639538375,7.0048403158194645,6.5,6.5,-0.08777777777777777,0.17,0.04555555555555556,-5.25,2.11,9.96,11.672291584
1671151914.3241014,0,-13.71112060546875,194.104736328125,691.499267578125,1,70.39697265625,118.242919921875,314.16455078125,2,122.934326171875,120.510009765625,308.630615234375,3,267.2021484375,194.548583984375,666.270751953125,7.441593639538375,7.0048403158194645,6.5,6.5,-0.08777777777777777,0.17,0.04555555555555556,-5.25,2.11,9.96,11.672291584
1671151914.334097,0,-13.04339599609375,193.96240234375,694.272705078125,1,70.6829833984375,119.116943359375,316.632568359375,2,123.3013916015625,121.3515625,311.090087890625,3,267.1973876953125,194.523681640625,669.010009765625,7.6885563963831665,7.229308309999621,-0.0,0.0,-0.006666666666666667,0.06,-0.027777777777777776,-5.47,2.03,9.52,11.678878656
1671151914.3440893,0,-12.89129638671875,193.759765625,696.80908203125,1,71.1732177734375,120.4150390625,319.085205078125,2,123.789306640625,122.609130859375,313.632080078125,3,267.5887451171875,194.37841796875,671.765625,7.6885563963831665,7.229308309999621,-0.0,0.0,-0.006666666666666667,0.06,-0.027777777777777776,-5.47,2.03,9.52,11.678878656
1671151914.354096,0,-12.89825439453125,193.466552734375,698.94287109375,1,71.474853515625,121.3837890625,320.9296875,2,124.1627197265625,123.514892578125,315.497802734375,3,267.793212890625,194.135986328125,673.979248046875,7.6885563963831665,7.229308309999621,-0.0,0.0,-0.006666666666666667,0.06,-0.027777777777777776,-5.47,2.03,9.52,11.678878656
1671151914.36411,0,-12.78448486328125,193.626220703125,700.78955078125,1,71.75439453125,122.497314453125,322.66748046875,2,124.399658203125,124.536376953125,317.377197265625,3,267.947998046875,194.027099609375,676.052490234375,7.6885563963831665,7.229308309999621,-0.0,0.0,-0.006666666666666667,0.06,-0.027777777777777776,-5.47,2.03,9.52,11.678878656
1671151914.3742259,0,-12.6595458984375,193.675048828125,702.45361328125,1,72.15625,123.3076171875,324.10107421875,2,124.5972900390625,125.182861328125,318.790771484375,3,267.923095703125,193.951416015625,677.6806640625,7.6885563963831665,7.229308309999621,-0.0,0.0,-0.006666666666666667,0.06,-0.027777777777777776,-5.47,2.03,9.52,11.678878656
1671151914.3840966,0,-12.5,193.708984375,703.4306640625,1,72.3026123046875,123.81591796875,324.92578125,2,124.672119140625,125.61474609375,319.726318359375,3,268.1103515625,194.03369140625,678.700439453125,7.756951986062847,7.28058102063607,-0.0,0.0,0.006666666666666667,0.37333333333333335,-0.05,-3.39,2.07,9.76,11.659117440000001
1671151914.394099,0,-12.29339599609375,193.584716796875,704.31689453125,1,72.40966796875,124.2080078125,325.60595703125,2,124.777099609375,125.969482421875,320.5400390625,3,268.2196044921875,194.048095703125,679.599853515625,7.756951986062847,7.28058102063607,-0.0,0.0,0.006666666666666667,0.37333333333333335,-0.05,-3.39,2.07,9.76,11.659117440000001
1671151914.404095,0,-12.31939697265625,193.487548828125,704.63671875,1,72.4952392578125,124.253173828125,325.928466796875,2,125.002197265625,125.8681640625,320.937744140625,3,268.298095703125,193.98291015625,680.031005859375,7.756951986062847,7.28058102063607,-0.0,0.0,0.006666666666666667,0.37333333333333335,-0.05,-3.39,2.07,9.76,11.659117440000001
1671151914.414172,0,-12.32952880859375,193.51904296875,704.760009765625,1,72.6497802734375,124.00732421875,326.09521484375,2,125.0447998046875,125.69287109375,321.177490234375,3,268.3076171875,194.001953125,680.202880859375,7.756951986062847,7.28058102063607,-0.0,0.0,0.006666666666666667,0.37333333333333335,-0.05,-3.39,2.07,9.76,11.659117440000001
1671151914.424106,0,-12.3956298828125,193.579345703125,704.47314453125,1,72.5792236328125,123.461181640625,326.025634765625,2,125.0955810546875,125.098388671875,321.076416015625,3,268.33154296875,194.112060546875,679.958251953125,7.756951986062847,7.28058102063607,-0.0,0.0,0.006666666666666667,0.37333333333333335,-0.05,-3.39,2.07,9.76,11.659117440000001
1671151914.4341042,0,-12.53619384765625,193.78076171875,703.905517578125,1,72.539794921875,122.4873046875,325.710205078125,2,125.0810546875,124.096923828125,320.76611328125,3,268.310791015625,194.284423828125,679.421630859375,7.775705615491146,7.30106132694268,-0.0,0.0,-0.008888888888888889,0.10888888888888888,-0.01,-3.96,1.69,9.82,11.659117440000001
1671151914.4441493,0,-12.55157470703125,193.93798828125,703.058837890625,1,72.611572265625,120.736328125,325.142578125,2,125.0794677734375,122.29443359375,320.345947265625,3,268.271728515625,194.481201171875,678.64453125,7.775705615491146,7.30106132694268,-0.0,0.0,-0.008888888888888889,0.10888888888888888,-0.01,-3.96,1.69,9.82,11.659117440000001
1671151914.4540274,0,-12.63116455078125,194.4521484375,701.744140625,1,72.501708984375,118.30908203125,324.489013671875,2,125.0252685546875,119.789794921875,319.757080078125,3,268.05224609375,194.88720703125,677.349853515625,7.775705615491146,7.30106132694268,-0.0,0.0,-0.008888888888888889,0.10888888888888888,-0.01,-3.96,1.69,9.82,11.659117440000001
1671151914.4640636,0,-12.6939697265625,194.8369140625,700.422607421875,1,72.5194091796875,115.2470703125,323.96533203125,2,125.0048828125,116.92724609375,319.0615234375,3,268.0330810546875,195.283447265625,676.068359375,7.775705615491146,7.30106132694268,-0.0,0.0,-0.008888888888888889,0.10888888888888888,-0.01,-3.96,1.69,9.82,11.659117440000001
1671151914.4740248,0,-12.98150634765625,195.294189453125,698.92578125,1,72.5267333984375,114.1845703125,323.336181640625,2,125.2489013671875,115.941650390625,318.33740234375,3,267.9078369140625,195.3349609375,674.70458984375,7.775705615491146,7.30106132694268,-0.0,0.0,-0.008888888888888889,0.10888888888888888,-0.01,-3.96,1.69,9.82,11.659117440000001
1671151914.4840243,0,-12.90057373046875,195.091552734375,698.218994140625,1,72.44775390625,114.09521484375,322.397705078125,2,125.3204345703125,115.89892578125,317.24755859375,3,267.9658203125,195.1728515625,673.8740234375,7.782756212744241,7.312140836911828,-0.0,0.0,0.0044444444444444444,-0.4855555555555556,-0.0044444444444444444,-3.33,1.83,9.88,11.642649760000001
1671151914.4940772,0,-12.81280517578125,195.29736328125,697.040771484375,1,72.4237060546875,113.960205078125,321.671875,2,125.284423828125,115.812255859375,316.349609375,3,268.0374755859375,195.335693359375,672.65234375,7.782756212744241,7.312140836911828,-0.0,0.0,0.0044444444444444444,-0.4855555555555556,-0.0044444444444444444,-3.33,1.83,9.88,11.642649760000001
1671151914.5040514,0,-12.78509521484375,195.26708984375,696.0693359375,1,72.3934326171875,113.8720703125,321.027587890625,2,125.3072509765625,115.73828125,315.661376953125,3,268.1063232421875,195.4296875,671.78369140625,7.782756212744241,7.312140836911828,-0.0,0.0,0.0044444444444444444,-0.4855555555555556,-0.0044444444444444444,-3.33,1.83,9.88,11.642649760000001
1671151914.5141287,0,-12.86419677734375,195.1640625,695.56884765625,1,72.3359375,113.854248046875,320.49853515625,2,125.349609375,115.693359375,315.17138671875,3,268.2669677734375,195.407470703125,671.2685546875,7.782756212744241,7.312140836911828,-0.0,0.0,0.0044444444444444444,-0.4855555555555556,-0.0044444444444444444,-3.33,1.83,9.88,11.642649760000001
1671151914.5242014,0,-12.81103515625,195.117919921875,695.356689453125,1,72.3480224609375,113.8818359375,320.2705078125,2,125.381591796875,115.66796875,314.9326171875,3,268.3291015625,195.4130859375,671.064453125,7.782756212744241,7.312140836911828,-0.0,0.0,0.0044444444444444444,-0.4855555555555556,-0.0044444444444444444,-3.33,1.83,9.88,11.642649760000001
1671151914.5341618,0,-12.7471923828125,195.220458984375,695.36376953125,1,72.3770751953125,113.798095703125,320.241943359375,2,125.3843994140625,115.61865234375,314.923828125,3,268.2574462890625,195.3134765625,671.14453125,7.782756212744241,7.312140836911828,-0.0,0.0,0.0044444444444444444,-0.4855555555555556,-0.0044444444444444444,-3.33,1.83,9.88,11.642649760000001
1671151914.544166,0,-12.89434814453125,195.027099609375,695.69384765625,1,72.3345947265625,113.802490234375,320.388671875,2,125.401611328125,115.64794921875,315.025634765625,3,268.2843017578125,195.203125,671.47119140625,7.783283808457058,7.313148065090841,-0.0,0.0,0.0,-0.06888888888888889,0.2733333333333333,7.41,1.92,8.42,11.632769152
1671151914.554033,0,-12.80914306640625,194.9521484375,695.941162109375,1,72.281494140625,113.849609375,320.53466796875,2,125.404541015625,115.598876953125,315.177001953125,3,268.4007568359375,195.218505859375,671.631591796875,7.783283808457058,7.313148065090841,-0.0,0.0,0.0,-0.06888888888888889,0.2733333333333333,7.41,1.92,8.42,11.632769152
1671151914.564155,0,-12.84320068359375,194.9462890625,696.161865234375,1,72.3082275390625,113.7802734375,320.75927734375,2,125.3453369140625,115.6025390625,315.3662109375,3,268.4149169921875,195.197509765625,671.788330078125,7.783283808457058,7.313148065090841,-0.0,0.0,0.0,-0.06888888888888889,0.2733333333333333,7.41,1.92,8.42,11.632769152
1671151914.574053,0,-12.81683349609375,194.94677734375,696.397705078125,1,72.3082275390625,113.793212890625,320.95849609375,2,125.349365234375,115.606689453125,315.6015625,3,268.46484375,195.18017578125,671.965576171875,7.776233211203962,7.306241357577606,-0.0,0.0,-0.0077777777777777776,0.05555555555555555,-0.0033333333333333335,1.0,1.97,9.11,11.639356224
1671151914.584098,0,-12.65496826171875,194.978271484375,696.583984375,1,72.2557373046875,113.780517578125,321.128662109375,2,125.3265380859375,115.545654296875,315.719482421875,3,268.50634765625,195.1689453125,672.0302734375,7.776233211203962,7.306241357577606,-0.0,0.0,-0.0077777777777777776,0.05555555555555555,-0.0033333333333333335,1.0,1.97,9.11,11.639356224
1671151914.5940855,0,-12.752685546875,195.007080078125,696.791259765625,1,72.25146484375,113.790771484375,321.364013671875,2,125.30908203125,115.560546875,315.888671875,3,268.511962890625,195.112548828125,672.26318359375,7.776233211203962,7.306241357577606,-0.0,0.0,-0.0077777777777777776,0.05555555555555555,-0.0033333333333333335,1.0,1.97,9.11,11.639356224
1671151914.6041005,0,-12.68597412109375,194.95849609375,696.84521484375,1,72.1114501953125,113.81787109375,321.4677734375,2,125.306640625,115.557373046875,316.00830078125,3,268.5428466796875,195.14306640625,672.33740234375,7.776233211203962,7.306241357577606,-0.0,0.0,-0.0077777777777777776,0.05555555555555555,-0.0033333333333333335,1.0,1.97,9.11,11.639356224
1671151914.6141138,0,-12.572021484375,195.01953125,697.006591796875,1,72.1175537109375,113.804931640625,321.576904296875,2,125.3309326171875,115.563232421875,316.18359375,3,268.5194091796875,195.083740234375,672.490478515625,7.776233211203962,7.306241357577606,-0.0,0.0,-0.0077777777777777776,0.05555555555555555,-0.0033333333333333335,1.0,1.97,9.11,11.639356224
1671151914.6240258,0,-12.65594482421875,195.005126953125,697.086181640625,1,72.2025146484375,113.7783203125,321.718017578125,2,125.3773193359375,115.51220703125,316.264892578125,3,268.5860595703125,195.085205078125,672.57275390625,7.776233211203962,7.306241357577606,-0.0,0.0,-0.0077777777777777776,0.05555555555555555,-0.0033333333333333335,1.0,1.97,9.11,11.639356224
1671151914.6340683,0,-12.6019287109375,195.0302734375,697.123046875,1,72.25439453125,113.8017578125,321.6923828125,2,125.4578857421875,115.488525390625,316.296142578125,3,268.576904296875,195.12353515625,672.603759765625,7.776233211203962,7.306241357577606,-0.0,0.0,-0.0077777777777777776,0.05555555555555555,-0.0033333333333333335,1.0,1.97,9.11,11.639356224
