Time,Marker0_ID,Marker0_x,Marker0_y,Marker0_z,Marker1_ID,Marker1_x,Marker1_y,Marker1_z,Marker2_ID,Marker2_x,Marker2_y,Marker2_z,Marker3_ID,Marker3_x,Marker3_y,Marker3_z,thetaR,thetaL,dutyR,dutyL,wx,wy,wz,ax,ay,az,Vbatt
1671151575.9313743,0,0,0,0,0,0,0,0,0,0,0,0,0,0,0,0,0,0,0,0,0,0,0,0,0,0,0
1671151575.9415433,0,-39.14678955078125,195.776123046875,165.132080078125,1,46.6409912109375,115.893310546875,-210.42919921875,2,99.9302978515625,117.37109375,-215.623779296875,3,242.5396728515625,195.924072265625,140.8408203125,0,0,0,0,0,0,0,0,0,0,0
1671151575.9514234,0,-39.1251220703125,195.813720703125,165.121826171875,1,46.65234375,115.94091796875,-210.439453125,2,99.9307861328125,117.41650390625,-215.62060546875,3,242.506591796875,195.90234375,140.79345703125,0,0,0,0,0,0,0,0,0,0,0
1671151575.961387,0,-39.10577392578125,195.79150390625,165.097412109375,1,46.6341552734375,115.9189453125,-210.448486328125,2,99.947509765625,117.359130859375,-215.610595703125,3,242.4971923828125,195.882080078125,140.78466796875,0,0,0,0,0,0,0,0,0,0,0
1671151575.9713535,0,-39.10491943359375,195.78271484375,165.149169921875,1,46.6202392578125,115.9013671875,-210.4638671875,2,99.9251708984375,117.390625,-215.63525390625,3,242.515869140625,195.894287109375,140.78955078125,0,0,0,0,0,0,0,0,0,0,0
1671151575.9813876,0,-39.11846923828125,195.83349609375,165.0751953125,1,46.6331787109375,115.942138671875,-210.475341796875,2,99.962646484375,117.3974609375,-215.59375,3,242.548095703125,195.898193359375,140.857421875,0,0,0,0,0,0,0,0,0,0,0
1671151575.991373,0,-39.10833740234375,195.7470703125,165.090576171875,1,46.64306640625,115.915771484375,-210.450927734375,2,99.96044921875,117.3671875,-215.590087890625,3,242.5521240234375,195.9169921875,140.8662109375,0,0,0,0,0,0,0,0,0,0,0
1671151576.0013971,0,-39.13140869140625,195.807861328125,165.113037109375,1,46.6226806640625,115.915771484375,-210.48388671875,2,99.94921875,117.400146484375,-215.60595703125,3,242.5338134765625,195.915283203125,140.80224609375,0,0,0,0,0,0,0,0,0,0,0
1671151576.0113928,0,-39.15704345703125,195.7900390625,165.116943359375,1,46.6578369140625,115.932861328125,-210.49853515625,2,99.9368896484375,117.36181640625,-215.614013671875,3,242.5179443359375,195.928955078125,140.774658203125,0.0,0.0,0.0,0.0,0.0,-0.0033333333333333335,-0.0011111111111111111,-0.17,1.83,9.58,11.711814016
1671151576.0213509,0,-39.10968017578125,195.81591796875,165.0966796875,1,46.6253662109375,115.902587890625,-210.474365234375,2,99.957275390625,117.356689453125,-215.588623046875,3,242.5164794921875,195.90625,140.782958984375,0.0,0.0,0.0,0.0,0.0,-0.0033333333333333335,-0.0011111111111111111,-0.17,1.83,9.58,11.711814016
1671151576.0313904,0,-39.12646484375,195.85986328125,165.064453125,1,46.648193359375,115.93359375,-210.452880859375,2,99.9793701171875,117.416259765625,-215.580078125,3,242.546875,195.9306640625,140.832275390625,0.0,0.0,0.0,0.0,-0.0011111111111111111,0.28,-0.0,-0.18,1.82,9.62,11.688759264
1671151576.041383,0,-39.19073486328125,195.8173828125,165.063720703125,1,46.6336669921875,115.91259765625,-210.485107421875,2,99.9442138671875,117.383544921875,-215.631103515625,3,242.5396728515625,195.9111328125,140.85595703125,0.0,0.0,0.0,0.0,-0.0011111111111111111,0.28,-0.0,-0.18,1.82,9.62,11.688759264
1671151576.0513892,0,-39.12261962890625,195.801025390625,165.0927734375,1,46.61181640625,115.9208984375,-210.47021484375,2,99.92919921875,117.38134765625,-215.613525390625,3,242.533447265625,195.907470703125,140.81787109375,0.0,0.0,0.0,0.0,-0.0011111111111111111,0.28,-0.0,-0.18,1.82,9.62,11.688759264
1671151576.0613885,0,-39.1348876953125,195.83935546875,165.09375,1,46.61669921875,115.907470703125,-210.469482421875,2,99.953369140625,117.364990234375,-215.6064453125,3,242.511474609375,195.90625,140.785400390625,0.0,0.0,0.0,0.0,-0.0011111111111111111,0.28,-0.0,-0.18,1.82,9.62,11.688759264
1671151576.0713933,0,-39.10491943359375,195.808349609375,165.10400390625,1,46.6409912109375,115.908447265625,-210.440673828125,2,99.940673828125,117.3505859375,-215.601806640625,3,242.4755859375,195.898193359375,140.789794921875,0.0,0.0,0.0,0.0,-0.0011111111111111111,0.28,-0.0,-0.18,1.82,9.62,11.688759264
1671151576.0814197,0,-39.1680908203125,195.841796875,165.066650390625,1,46.6270751953125,115.90625,-210.44140625,2,99.9354248046875,117.428466796875,-215.58251953125,3,242.5128173828125,195.932373046875,140.844970703125,0.0,0.0,0.0,0.0,-0.0011111111111111111,-0.0011111111111111111,-0.0011111111111111111,-0.16,1.84,9.6,11.711814016
1671151576.091392,0,-39.17999267578125,195.789794921875,165.104248046875,1,46.6612548828125,115.889404296875,-210.448974609375,2,99.9613037109375,117.363037109375,-215.588623046875,3,242.5257568359375,195.93896484375,140.857666015625,0.0,0.0,0.0,0.0,-0.0011111111111111111,-0.0011111111111111111,-0.0011111111111111111,-0.16,1.84,9.6,11.711814016
1671151576.1013956,0,-39.16693115234375,195.82421875,165.078125,1,46.656982421875,115.9443359375,-210.445556640625,2,99.9593505859375,117.421875,-215.573974609375,3,242.5274658203125,195.906982421875,140.81640625,0.0,0.0,0.0,0.0,-0.0011111111111111111,-0.0011111111111111111,-0.0011111111111111111,-0.16,1.84,9.6,11.711814016
1671151576.1114402,0,-39.2001953125,195.862060546875,165.06640625,1,46.6318359375,115.92333984375,-210.46435546875,2,99.9403076171875,117.352783203125,-215.607177734375,3,242.5277099609375,195.90673828125,140.792236328125,0.0,0.0,0.0,0.0,-0.0011111111111111111,-0.0011111111111111111,-0.0011111111111111111,-0.16,1.84,9.6,11.711814016
1671151576.1213963,0,-39.087158203125,195.764404296875,165.09130859375,1,46.6461181640625,115.900146484375,-210.45703125,2,99.974609375,117.33935546875,-215.55908203125,3,242.5313720703125,195.8974609375,140.81689453125,0.0,0.0,0.0,0.0,-0.0011111111111111111,-0.0011111111111111111,-0.0011111111111111111,-0.16,1.84,9.6,11.711814016
1671151576.1313252,0,-39.1923828125,195.8310546875,165.09619140625,1,46.6385498046875,115.90185546875,-210.445556640625,2,99.9698486328125,117.375732421875,-215.563720703125,3,242.5479736328125,195.91357421875,140.859375,0.0,0.0,0.0,0.0,-0.0011111111111111111,-0.0011111111111111111,-0.0011111111111111111,-0.16,1.84,9.6,11.711814016
1671151576.1413722,0,-39.19708251953125,195.815673828125,165.08251953125,1,46.64208984375,115.916015625,-210.465576171875,2,99.9564208984375,117.36376953125,-215.592529296875,3,242.5350341796875,195.9140625,140.838134765625,0.0,0.0,0.0,0.0,0.0022222222222222222,-0.0,-0.0,-0.17,1.83,9.59,11.70852048
1671151576.1514058,0,-39.1478271484375,195.86962890625,165.066650390625,1,46.64208984375,115.93359375,-210.4423828125,2,99.9478759765625,117.390869140625,-215.588134765625,3,242.5225830078125,195.902587890625,140.798583984375,0.0,0.0,0.0,0.0,0.0022222222222222222,-0.0,-0.0,-0.17,1.83,9.59,11.70852048
1671151576.1614091,0,-39.12347412109375,195.824462890625,165.065185546875,1,46.61279296875,115.923828125,-210.476318359375,2,99.951171875,117.376220703125,-215.61669921875,3,242.5592041015625,195.91943359375,140.840087890625,0.0,0.0,0.0,0.0,0.0022222222222222222,-0.0,-0.0,-0.17,1.83,9.59,11.70852048
1671151576.1713955,0,-39.12518310546875,195.822509765625,165.088623046875,1,46.631591796875,115.936767578125,-210.478271484375,2,99.929931640625,117.356689453125,-215.627685546875,3,242.52734375,195.89501953125,140.802978515625,0.0,0.0,0.0,0.0,0.0022222222222222222,-0.0,-0.0,-0.17,1.83,9.59,11.70852048
1671151576.1814096,0,-39.1617431640625,195.85302734375,165.077880859375,1,46.6300048828125,115.91259765625,-210.4482421875,2,99.9619140625,117.38330078125,-215.57763671875,3,242.5526123046875,195.94921875,140.845458984375,0.0,0.0,0.0,0.0,-0.0022222222222222222,-0.0022222222222222222,0.0011111111111111111,-0.16,1.83,9.63,11.698639872000001
1671151576.1913939,0,-39.1922607421875,195.79541015625,165.07177734375,1,46.6243896484375,115.905517578125,-210.44873046875,2,99.94482421875,117.36328125,-215.630615234375,3,242.457763671875,195.971923828125,140.85595703125,0.0,0.0,0.0,0.0,-0.0022222222222222222,-0.0022222222222222222,0.0011111111111111111,-0.16,1.83,9.63,11.698639872000001
1671151576.2014225,0,-39.16302490234375,195.79931640625,165.1064453125,1,46.651611328125,115.885498046875,-210.4130859375,2,99.9613037109375,117.37646484375,-215.581787109375,3,242.533447265625,195.8828125,140.82666015625,0.0,0.0,0.0,0.0,-0.0022222222222222222,-0.0022222222222222222,0.0011111111111111111,-0.16,1.83,9.63,11.698639872000001
1671151576.2114248,0,-39.1763916015625,195.82470703125,165.099609375,1,46.626953125,115.943115234375,-210.4501953125,2,99.96337890625,117.38232421875,-215.593994140625,3,242.514404296875,195.897216796875,140.792724609375,0.0,0.0,0.0,0.0,-0.0022222222222222222,-0.0022222222222222222,0.0011111111111111111,-0.16,1.83,9.63,11.698639872000001
1671151576.2213936,0,-39.16363525390625,195.816162109375,165.089111328125,1,46.65576171875,115.909423828125,-210.44775390625,2,99.965576171875,117.36962890625,-215.6083984375,3,242.5037841796875,195.91259765625,140.78515625,0.0,0.0,0.0,0.0,-0.0022222222222222222,-0.0022222222222222222,0.0011111111111111111,-0.16,1.83,9.63,11.698639872000001
1671151576.2313945,0,-39.14080810546875,195.80224609375,165.115234375,1,46.6585693359375,115.96142578125,-210.466064453125,2,99.963134765625,117.405029296875,-215.59033203125,3,242.53466796875,195.91650390625,140.87548828125,0.0,0.0,0.0,0.0,-0.0022222222222222222,-0.0022222222222222222,0.0011111111111111111,-0.16,1.83,9.63,11.698639872000001
1671151576.2413936,0,-39.16583251953125,195.783935546875,165.079833984375,1,46.6329345703125,115.89404296875,-210.440673828125,2,99.9425048828125,117.3408203125,-215.590087890625,3,242.533203125,195.918701171875,140.846435546875,0.0,0.0,0.0,0.0,0.0011111111111111111,-0.0,-0.0011111111111111111,-0.16,1.83,9.59,11.718401088
1671151576.2514195,0,-39.1605224609375,195.8349609375,165.09814453125,1,46.603515625,115.90087890625,-210.463623046875,2,99.93359375,117.400390625,-215.55859375,3,242.5443115234375,195.905517578125,140.80419921875,0.0,0.0,0.0,0.0,0.0011111111111111111,-0.0,-0.0011111111111111111,-0.16,1.83,9.59,11.718401088
1671151576.2614079,0,-39.15753173828125,195.8349609375,165.061767578125,1,46.6536865234375,115.9453125,-210.47021484375,2,99.965087890625,117.34521484375,-215.587646484375,3,242.5260009765625,195.8955078125,140.807373046875,0.0,0.0,0.0,0.0,0.0011111111111111111,-0.0,-0.0011111111111111111,-0.16,1.83,9.59,11.718401088
1671151576.2713935,0,-39.158447265625,195.855712890625,165.08349609375,1,46.65087890625,115.928466796875,-210.4794921875,2,99.9410400390625,117.3486328125,-215.610595703125,3,242.532470703125,195.902587890625,140.79541015625,0.0,0.0,0.0,0.0,0.0011111111111111111,-0.0,-0.0011111111111111111,-0.16,1.83,9.59,11.718401088
1671151576.2814324,0,-39.06683349609375,195.966064453125,165.0205078125,1,46.6195068359375,115.92236328125,-210.48486328125,2,99.927734375,117.413818359375,-215.621826171875,3,242.53125,195.9150390625,140.8505859375,0.0,0.0,0.0,0.0,0.0011111111111111111,-0.0,-0.0011111111111111111,-0.16,1.83,9.59,11.718401088
1671151576.2913957,0,-39.16033935546875,195.781494140625,165.103759765625,1,46.6414794921875,115.8896484375,-210.43017578125,2,99.9820556640625,117.364990234375,-215.604248046875,3,242.54296875,195.953125,140.8388671875,0.0,0.0,0.0,0.0,0.0011111111111111111,-0.0,-0.0,-0.16,1.82,9.58,11.718401088
1671151576.301417,0,-39.1767578125,195.83349609375,165.102783203125,1,46.635986328125,115.87451171875,-210.407958984375,2,99.9456787109375,117.4013671875,-215.600341796875,3,242.5413818359375,195.89990234375,140.80810546875,0.0,0.0,0.0,0.0,0.0011111111111111111,-0.0,-0.0,-0.16,1.82,9.58,11.718401088
1671151576.3114297,0,-39.119873046875,195.803955078125,165.0947265625,1,46.6087646484375,115.91455078125,-210.477294921875,2,99.95556640625,117.34912109375,-215.588134765625,3,242.5142822265625,195.890380859375,140.7822265625,0.0,0.0,0.0,0.0,0.0011111111111111111,-0.0,-0.0,-0.16,1.82,9.58,11.718401088
1671151576.3214223,0,-39.13592529296875,195.7978515625,165.081298828125,1,46.6572265625,115.90283203125,-210.45458984375,2,99.981201171875,117.343505859375,-215.599365234375,3,242.5482177734375,195.921142578125,140.79443359375,0.0,0.0,0.0,0.0,0.0011111111111111111,-0.0,-0.0,-0.16,1.82,9.58,11.718401088
1671151576.3313932,0,-39.13812255859375,195.81201171875,165.09033203125,1,46.6510009765625,115.939453125,-210.470703125,2,99.9466552734375,117.3857421875,-215.59033203125,3,242.5238037109375,195.90478515625,140.838623046875,0.0,0.0,0.0,0.0,0.0011111111111111111,0.0011111111111111111,-0.0,-0.18,1.82,9.61,11.711814016
1671151576.3413935,0,-39.18695068359375,195.79443359375,165.06396484375,1,46.6353759765625,115.9091796875,-210.486328125,2,99.9427490234375,117.349365234375,-215.5859375,3,242.5374755859375,195.921630859375,140.84619140625,0.0,0.0,0.0,0.0,0.0011111111111111111,0.0011111111111111111,-0.0,-0.18,1.82,9.61,11.711814016
1671151576.351398,0,-39.03936767578125,195.954833984375,165.00927734375,1,46.62255859375,115.88671875,-210.462646484375,2,99.961669921875,117.413818359375,-215.575439453125,3,242.5357666015625,195.882080078125,140.807861328125,0.0,0.0,0.0,0.0,0.0011111111111111111,0.0011111111111111111,-0.0,-0.18,1.82,9.61,11.711814016
1671151576.3615112,0,-39.13177490234375,195.807861328125,165.08642578125,1,46.636474609375,115.922119140625,-210.411376953125,2,99.94091796875,117.37548828125,-215.611083984375,3,242.5364990234375,195.895263671875,140.804443359375,0.0,0.0,0.0,0.0,0.0011111111111111111,0.0011111111111111111,-0.0,-0.18,1.82,9.61,11.711814016
1671151576.3713946,0,-39.2137451171875,195.84765625,165.060302734375,1,46.6318359375,115.859375,-210.4091796875,2,99.96875,117.335693359375,-215.60498046875,3,242.5394287109375,195.905517578125,140.810546875,0.0,0.0,0.0,0.0,0.0011111111111111111,0.0011111111111111111,-0.0,-0.18,1.82,9.61,11.711814016
1671151576.3813965,0,-39.19024658203125,195.822265625,165.086181640625,1,46.623046875,115.93798828125,-210.46630859375,2,99.9598388671875,117.365966796875,-215.60546875,3,242.5355224609375,195.92724609375,140.83447265625,0.0,0.0,0.0,0.0,0.0011111111111111111,-0.2833333333333333,-0.0,-0.17,1.83,9.61,11.711814016
1671151576.3913975,0,-39.19683837890625,195.771484375,165.086669921875,1,46.637939453125,115.9345703125,-210.4775390625,2,99.965087890625,117.34814453125,-215.56298828125,3,242.5379638671875,195.900390625,140.85205078125,0.0,0.0,0.0,0.0,0.0011111111111111111,-0.2833333333333333,-0.0,-0.17,1.83,9.61,11.711814016
1671151576.4013946,0,-39.1796875,195.80322265625,165.09033203125,1,46.642578125,115.92041015625,-210.45556640625,2,99.99365234375,117.369873046875,-215.54345703125,3,242.52783203125,195.874267578125,140.81201171875,0.0,0.0,0.0,0.0,0.0011111111111111111,-0.2833333333333333,-0.0,-0.17,1.83,9.61,11.711814016
1671151576.4114244,0,-39.20654296875,195.8564453125,165.0751953125,1,46.63720703125,115.916015625,-210.466796875,2,99.9765625,117.35498046875,-215.5673828125,3,242.5377197265625,195.908935546875,140.830322265625,0.0,0.0,0.0,0.0,0.0011111111111111111,-0.2833333333333333,-0.0,-0.17,1.83,9.61,11.711814016
1671151576.4213953,0,-39.2210693359375,195.805419921875,165.095458984375,1,46.6544189453125,115.8623046875,-210.417236328125,2,99.9534912109375,117.349365234375,-215.591064453125,3,242.5443115234375,195.9189453125,140.8125,0.0,0.0,0.0,0.0,0.0011111111111111111,-0.2833333333333333,-0.0,-0.17,1.83,9.61,11.711814016
1671151576.4314005,0,-39.20318603515625,195.8193359375,165.09033203125,1,46.6341552734375,115.885986328125,-210.40966796875,2,99.9532470703125,117.40087890625,-215.59619140625,3,242.5726318359375,195.90283203125,140.862060546875,0.0,0.0,0.0,0.0,0.0011111111111111111,-0.2833333333333333,-0.0,-0.17,1.83,9.61,11.711814016
1671151576.4414766,0,-39.2552490234375,195.832275390625,165.068359375,1,46.6243896484375,115.910400390625,-210.467041015625,2,99.950439453125,117.374267578125,-215.60400390625,3,242.5535888671875,195.914794921875,140.8525390625,0.0,0.0,0.0,0.0,0.0,-0.0,-0.0022222222222222222,-0.17,1.82,9.58,11.701933408
1671151576.4514153,0,-39.1783447265625,195.83447265625,165.068359375,1,46.6446533203125,115.938720703125,-210.44189453125,2,99.964111328125,117.384033203125,-215.560546875,3,242.5494384765625,195.91162109375,140.805419921875,0.0,0.0,0.0,0.0,0.0,-0.0,-0.0022222222222222222,-0.17,1.82,9.58,11.701933408
1671151576.4614239,0,-39.1839599609375,195.8359375,165.08935546875,1,46.626953125,115.95556640625,-210.443359375,2,99.9598388671875,117.361083984375,-215.5791015625,3,242.5137939453125,195.89599609375,140.790771484375,0.0,0.0,0.0,0.0,0.0,-0.0,-0.0022222222222222222,-0.17,1.82,9.58,11.701933408
1671151576.4714062,0,-39.03948974609375,195.9169921875,165.065185546875,1,46.63671875,115.91552734375,-210.457763671875,2,99.967041015625,117.3486328125,-215.58203125,3,242.45166015625,195.93896484375,140.7998046875,0.0,0.0,0.0,0.0,0.0,-0.0,-0.0022222222222222222,-0.17,1.82,9.58,11.701933408
1671151576.4813921,0,-39.18756103515625,195.827392578125,165.11669921875,1,46.6195068359375,115.950439453125,-210.474609375,2,99.951416015625,117.387451171875,-215.567138671875,3,242.5052490234375,195.927734375,140.86865234375,0.0,0.0,0.0,0.0,0.2833333333333333,-0.0,-0.0011111111111111111,-0.17,1.83,9.59,11.701933408
1671151576.4914978,0,-39.1392822265625,195.701416015625,165.103271484375,1,46.63037109375,115.892333984375,-210.42724609375,2,99.9537353515625,117.37841796875,-215.602783203125,3,242.522705078125,195.9111328125,140.8447265625,0.0,0.0,0.0,0.0,0.2833333333333333,-0.0,-0.0011111111111111111,-0.17,1.83,9.59,11.701933408
1671151576.5014036,0,-39.0911865234375,195.732177734375,165.103759765625,1,46.624755859375,115.895751953125,-210.47265625,2,99.9549560546875,117.380126953125,-215.5712890625,3,242.5306396484375,195.9130859375,140.876708984375,0.0,0.0,0.0,0.0,0.2833333333333333,-0.0,-0.0011111111111111111,-0.17,1.83,9.59,11.701933408
1671151576.5114264,0,-39.12969970703125,195.77880859375,165.09521484375,1,46.616943359375,115.91162109375,-210.474853515625,2,99.9681396484375,117.37744140625,-215.59228515625,3,242.5240478515625,195.921875,140.824951171875,0.0,0.0,0.0,0.0,0.2833333333333333,-0.0,-0.0011111111111111111,-0.17,1.83,9.59,11.701933408
1671151576.5213923,0,-39.09686279296875,195.748779296875,165.121826171875,1,46.6402587890625,115.884521484375,-210.435791015625,2,99.9586181640625,117.38525390625,-215.604248046875,3,242.5379638671875,195.91015625,140.822021484375,0.0,0.0,0.0,0.0,0.2833333333333333,-0.0,-0.0011111111111111111,-0.17,1.83,9.59,11.701933408
1671151576.5313954,0,-39.09637451171875,195.763916015625,165.131591796875,1,46.6546630859375,115.88720703125,-210.412109375,2,99.972412109375,117.384033203125,-215.569091796875,3,242.546630859375,195.93408203125,140.858642578125,0.0,0.0,0.0,0.0,0.0022222222222222222,-0.0011111111111111111,-0.0011111111111111111,-0.18,1.83,9.59,11.711814016
1671151576.5413942,0,-39.12835693359375,195.72802734375,165.103515625,1,46.6856689453125,115.843017578125,-210.587158203125,2,99.9727783203125,117.359130859375,-215.613525390625,3,242.54296875,195.93701171875,140.83203125,0.0,0.0,0.0,0.0,0.0022222222222222222,-0.0011111111111111111,-0.0011111111111111111,-0.18,1.83,9.59,11.711814016
1671151576.5513978,0,-39.1375732421875,195.769287109375,165.10595703125,1,46.6019287109375,115.953857421875,-210.528564453125,2,99.956298828125,117.390869140625,-215.59375,3,242.5198974609375,195.896240234375,140.7900390625,0.0,0.0,0.0,0.0,0.0022222222222222222,-0.0011111111111111111,-0.0011111111111111111,-0.18,1.83,9.59,11.711814016
1671151576.5614378,0,-39.09454345703125,195.75244140625,165.114501953125,1,46.614990234375,115.879638671875,-210.480712890625,2,99.961181640625,117.3486328125,-215.567626953125,3,242.5355224609375,195.888671875,140.80615234375,0.0,0.0,0.0,0.0,0.0022222222222222222,-0.0011111111111111111,-0.0011111111111111111,-0.18,1.83,9.59,11.711814016
1671151576.5713933,0,-39.10418701171875,195.787353515625,165.128173828125,1,46.64892578125,115.886962890625,-210.4365234375,2,99.9730224609375,117.359619140625,-215.594970703125,3,242.521728515625,195.9287109375,140.769775390625,0.0,0.0,0.0,0.0,0.0022222222222222222,-0.0011111111111111111,-0.0011111111111111111,-0.18,1.83,9.59,11.711814016
1671151576.5813968,0,-39.10748291015625,195.750244140625,165.132080078125,1,46.6292724609375,115.9296875,-210.467041015625,2,99.96533203125,117.384521484375,-215.598876953125,3,242.5303955078125,195.92431640625,140.83447265625,0.0,0.0,0.0,0.0,0.0011111111111111111,0.0033333333333333335,-0.0011111111111111111,-0.15,1.83,9.62,11.695346336
1671151576.5913959,0,-39.1116943359375,195.724853515625,165.06201171875,1,46.626953125,115.921630859375,-210.475830078125,2,99.933349609375,117.3994140625,-215.626220703125,3,242.5457763671875,195.893798828125,140.844970703125,0.0,0.0,0.0,0.0,0.0011111111111111111,0.0033333333333333335,-0.0011111111111111111,-0.15,1.83,9.62,11.695346336
1671151576.601392,0,-39.08502197265625,195.722900390625,165.119384765625,1,46.626953125,115.912841796875,-210.46240234375,2,99.95849609375,117.36962890625,-215.578857421875,3,242.5604248046875,195.921142578125,140.8681640625,0.0,0.0,0.0,0.0,0.0011111111111111111,0.0033333333333333335,-0.0011111111111111111,-0.15,1.83,9.62,11.695346336
1671151576.6114519,0,-39.038330078125,195.7421875,165.12548828125,1,46.6131591796875,115.93603515625,-210.458984375,2,99.94970703125,117.34912109375,-215.60546875,3,242.5665283203125,195.91943359375,140.82275390625,0.0,0.0,0.0,0.0,0.0011111111111111111,0.0033333333333333335,-0.0011111111111111111,-0.15,1.83,9.62,11.695346336
1671151576.621403,0,-39.0286865234375,195.748291015625,165.140869140625,1,46.65234375,115.89990234375,-210.444580078125,2,99.9619140625,117.336181640625,-215.5751953125,3,242.52392578125,195.931396484375,140.81005859375,0.0,0.0,0.0,0.0,0.0011111111111111111,0.0033333333333333335,-0.0011111111111111111,-0.15,1.83,9.62,11.695346336
1671151576.6313925,0,-39.0230712890625,195.7333984375,165.140869140625,1,46.6419677734375,115.944580078125,-210.469482421875,2,99.9530029296875,117.400390625,-215.586669921875,3,242.5538330078125,195.924560546875,140.84765625,0.0,0.0,0.0,0.0,0.0011111111111111111,-0.0022222222222222222,-0.0,-0.17,1.84,9.58,11.715107552000001
1671151576.6415007,0,-39.04290771484375,195.69140625,165.155517578125,1,46.6064453125,115.916015625,-210.462890625,2,99.944580078125,117.348388671875,-215.58447265625,3,242.5546875,195.912109375,140.88623046875,0.0,0.0,0.0,0.0,0.0011111111111111111,-0.0022222222222222222,-0.0,-0.17,1.84,9.58,11.715107552000001
1671151576.6513948,0,-39.0020751953125,195.7275390625,165.1533203125,1,46.607666015625,115.917724609375,-210.478759765625,2,99.96826171875,117.40673828125,-215.575439453125,3,242.5302734375,195.90576171875,140.81103515625,0.0,0.0,0.0,0.0,0.0011111111111111111,-0.0022222222222222222,-0.0,-0.17,1.84,9.58,11.715107552000001
1671151576.6614432,0,-39.00775146484375,195.750732421875,165.1025390625,1,46.6480712890625,115.8935546875,-210.412841796875,2,99.977294921875,117.36181640625,-215.594970703125,3,242.5321044921875,195.90234375,140.778564453125,0.0,0.0,0.0,0.0,0.0011111111111111111,-0.0022222222222222222,-0.0,-0.17,1.84,9.58,11.715107552000001
1671151576.6713972,0,-38.989990234375,195.7060546875,165.142822265625,1,46.6312255859375,115.871337890625,-210.45361328125,2,99.966064453125,117.34912109375,-215.598876953125,3,242.52294921875,195.888427734375,140.780517578125,0.0,0.0,0.0,0.0,0.0011111111111111111,-0.0022222222222222222,-0.0,-0.17,1.84,9.58,11.715107552000001
1671151576.6813936,0,-39.01873779296875,195.730224609375,165.125244140625,1,46.618408203125,115.921630859375,-210.4765625,2,99.9676513671875,117.413818359375,-215.591796875,3,242.5447998046875,195.904541015625,140.8798828125,0.0,0.0,0.0,0.0,0.0011111111111111111,-0.0022222222222222222,-0.0,-0.17,1.84,9.58,11.715107552000001
1671151576.6914196,0,-39.06298828125,195.71533203125,165.130615234375,1,46.6319580078125,115.89306640625,-210.450927734375,2,99.9515380859375,117.37646484375,-215.61572265625,3,242.55126953125,195.90771484375,140.853515625,0.0,0.0,0.0,0.0,0.0011111111111111111,-0.0,-0.0011111111111111111,-0.17,1.83,9.59,11.721694624000001
1671151576.701395,0,-39.0244140625,195.686279296875,165.1318359375,1,46.6253662109375,115.884033203125,-210.462646484375,2,99.95361328125,117.367919921875,-215.572021484375,3,242.5369873046875,195.900390625,140.845947265625,0.0,0.0,0.0,0.0,0.0011111111111111111,-0.0,-0.0011111111111111111,-0.17,1.83,9.59,11.721694624000001
1671151576.7114437,0,-38.96490478515625,195.68994140625,165.142578125,1,46.6270751953125,115.935791015625,-210.475830078125,2,99.962646484375,117.350830078125,-215.60009765625,3,242.5206298828125,195.897216796875,140.792724609375,0.0,0.0,0.0,0.0,0.0011111111111111111,-0.0,-0.0011111111111111111,-0.17,1.83,9.59,11.721694624000001
1671151576.7213984,0,-38.970703125,195.69580078125,165.12939453125,1,46.6221923828125,115.89306640625,-210.469970703125,2,99.94091796875,117.359375,-215.610595703125,3,242.5322265625,195.890625,140.7939453125,0.0,0.0,0.0,0.0,0.0011111111111111111,-0.0,-0.0011111111111111111,-0.17,1.83,9.59,11.721694624000001
1671151576.7313137,0,-39.02667236328125,195.760498046875,165.164794921875,1,46.629150390625,115.92724609375,-210.451171875,2,99.9542236328125,117.387451171875,-215.596923828125,3,242.5323486328125,195.91552734375,140.82080078125,0.0,0.0,0.0,0.0,0.0,-0.0033333333333333335,-0.2822222222222222,-0.16,1.83,9.61,11.715107552000001
1671151576.741372,0,-39.0697021484375,195.72265625,165.168212890625,1,46.6290283203125,115.902099609375,-210.452392578125,2,99.958251953125,117.348388671875,-215.5859375,3,242.53466796875,195.92626953125,140.826904296875,0.0,0.0,0.0,0.0,0.0,-0.0033333333333333335,-0.2822222222222222,-0.16,1.83,9.61,11.715107552000001
1671151576.751393,0,-38.9818115234375,195.705810546875,165.1591796875,1,46.6435546875,115.90576171875,-210.4560546875,2,99.961669921875,117.366455078125,-215.5791015625,3,242.5423583984375,195.899658203125,140.806884765625,0.0,0.0,0.0,0.0,0.0,-0.0033333333333333335,-0.2822222222222222,-0.16,1.83,9.61,11.715107552000001
1671151576.7613862,0,-39.00604248046875,195.714599609375,165.1318359375,1,46.6002197265625,115.915771484375,-210.496826171875,2,99.96142578125,117.344970703125,-215.580078125,3,242.543701171875,195.888916015625,140.8173828125,0.0,0.0,0.0,0.0,0.0,-0.0033333333333333335,-0.2822222222222222,-0.16,1.83,9.61,11.715107552000001
1671151576.771396,0,-39.0787353515625,195.740966796875,165.1865234375,1,46.622314453125,115.87109375,-210.445556640625,2,99.949951171875,117.3447265625,-215.597900390625,3,242.54736328125,195.8994140625,140.774169921875,0.0,0.0,0.0,0.0,0.0,-0.0033333333333333335,-0.2822222222222222,-0.16,1.83,9.61,11.715107552000001
1671151576.7813923,0,-39.03985595703125,195.75048828125,165.13818359375,1,46.5888671875,115.901123046875,-210.499755859375,2,99.95068359375,117.369384765625,-215.584716796875,3,242.543701171875,195.912353515625,140.833984375,0.0,0.0,0.0,0.0,0.0011111111111111111,0.0022222222222222222,0.0011111111111111111,-0.16,1.83,9.62,11.715107552000001
1671151576.7913933,0,-39.04144287109375,195.654052734375,165.162109375,1,46.6285400390625,115.9013671875,-210.44775390625,2,99.9364013671875,117.340576171875,-215.608154296875,3,242.5321044921875,195.910888671875,140.824462890625,0.0,0.0,0.0,0.0,0.0011111111111111111,0.0022222222222222222,0.0011111111111111111,-0.16,1.83,9.62,11.715107552000001
1671151576.8014138,0,-39.0224609375,195.7158203125,165.14990234375,1,46.65087890625,115.92236328125,-210.439208984375,2,99.946044921875,117.3857421875,-215.62255859375,3,242.5147705078125,195.901123046875,140.778564453125,0.0,0.0,0.0,0.0,0.0011111111111111111,0.0022222222222222222,0.0011111111111111111,-0.16,1.83,9.62,11.715107552000001
1671151576.8114405,0,-39.00848388671875,195.69140625,165.166259765625,1,46.6407470703125,115.910888671875,-210.453857421875,2,99.964599609375,117.343505859375,-215.583251953125,3,242.5238037109375,195.92626953125,140.783203125,0.0,0.0,0.0,0.0,0.0011111111111111111,0.0022222222222222222,0.0011111111111111111,-0.16,1.83,9.62,11.715107552000001
1671151576.8215353,0,-38.9918212890625,195.719970703125,165.178955078125,1,46.6278076171875,115.908203125,-210.4560546875,2,99.9393310546875,117.38916015625,-215.6318359375,3,242.5081787109375,195.89892578125,140.7890625,0.0,0.0,0.0,0.0,0.0011111111111111111,0.0022222222222222222,0.0011111111111111111,-0.16,1.83,9.62,11.715107552000001
1671151576.8314874,0,-38.99163818359375,195.69677734375,165.1767578125,1,46.626708984375,115.9189453125,-210.458984375,2,99.9970703125,117.405517578125,-215.566162109375,3,242.5438232421875,195.92138671875,140.842529296875,0.0,0.0,0.0,0.0,0.0,0.2833333333333333,-0.0011111111111111111,-0.17,1.82,9.59,11.715107552000001
1671151576.841494,0,-39.01007080078125,195.639404296875,165.168701171875,1,46.64013671875,115.9130859375,-210.468017578125,2,99.951904296875,117.36279296875,-215.586181640625,3,242.5269775390625,195.91796875,140.84619140625,0.0,0.0,0.0,0.0,0.0,0.2833333333333333,-0.0011111111111111111,-0.17,1.82,9.59,11.715107552000001
1671151576.8514955,0,-39.0081787109375,195.63330078125,165.161865234375,1,46.6571044921875,115.87548828125,-210.43310546875,2,99.915771484375,117.390869140625,-215.60205078125,3,242.526123046875,195.89599609375,140.8408203125,0.0,0.0,0.0,0.0,0.0,0.2833333333333333,-0.0011111111111111111,-0.17,1.82,9.59,11.715107552000001
1671151576.8614957,0,-38.9462890625,195.74365234375,165.135009765625,1,46.6365966796875,115.892822265625,-210.435791015625,2,99.93603515625,117.364990234375,-215.6123046875,3,242.52197265625,195.88232421875,140.791015625,0.0,0.0,0.0,0.0,0.0,0.2833333333333333,-0.0011111111111111111,-0.17,1.82,9.59,11.715107552000001
1671151576.8714921,0,-39.02069091796875,195.75146484375,165.162841796875,1,46.64892578125,115.87841796875,-210.43505859375,2,99.9722900390625,117.386474609375,-215.617431640625,3,242.532470703125,195.901611328125,140.822021484375,0.0,0.0,0.0,0.0,0.0,0.2833333333333333,-0.0011111111111111111,-0.17,1.82,9.59,11.715107552000001
1671151576.881492,0,-39.03094482421875,195.73779296875,165.18310546875,1,46.6361083984375,115.931396484375,-210.451416015625,2,99.936767578125,117.385498046875,-215.621337890625,3,242.5716552734375,195.917236328125,140.859619140625,0.0,0.0,0.0,0.0,0.0,-0.0011111111111111111,-0.0,-0.18,1.85,9.6,11.718401088
1671151576.8914902,0,-39.06134033203125,195.693115234375,165.14208984375,1,46.6220703125,115.89453125,-210.4482421875,2,99.9617919921875,117.38916015625,-215.629638671875,3,242.5723876953125,195.908447265625,140.884033203125,0.0,0.0,0.0,0.0,0.0,-0.0011111111111111111,-0.0,-0.18,1.85,9.6,11.718401088
1671151576.9015043,0,-39.02862548828125,195.725341796875,165.14111328125,1,46.6011962890625,115.90478515625,-210.458984375,2,99.965087890625,117.40478515625,-215.60595703125,3,242.5308837890625,195.915283203125,140.811279296875,0.0,0.0,0.0,0.0,0.0,-0.0011111111111111111,-0.0,-0.18,1.85,9.6,11.718401088
1671151576.91145,0,-39.08673095703125,195.73388671875,165.175048828125,1,46.6177978515625,115.91943359375,-210.458251953125,2,99.949462890625,117.35400390625,-215.60595703125,3,242.5308837890625,195.901123046875,140.80615234375,0.0,0.0,0.0,0.0,0.0,-0.0011111111111111111,-0.0,-0.18,1.85,9.6,11.718401088
1671151576.9214847,0,-39.02880859375,195.740478515625,165.169189453125,1,46.6290283203125,115.911376953125,-210.484375,2,99.957275390625,117.368408203125,-215.619873046875,3,242.5218505859375,195.889892578125,140.81103515625,0.0,0.0,0.0,0.0,0.0,-0.0011111111111111111,-0.0,-0.18,1.85,9.6,11.718401088
1671151576.9314396,0,-39.11212158203125,195.78076171875,165.17041015625,1,46.63720703125,115.933837890625,-210.470458984375,2,99.9730224609375,117.36865234375,-215.56396484375,3,242.513916015625,195.8896484375,140.830322265625,0.0,0.0,0.0,0.0,-0.28444444444444444,-0.0,-0.0,-0.17,1.84,9.59,11.718401088
1671151576.941422,0,-39.0782470703125,195.712890625,165.16064453125,1,46.6368408203125,115.8994140625,-210.460693359375,2,99.989990234375,117.32666015625,-215.60595703125,3,242.517822265625,195.91064453125,140.85693359375,0.0,0.0,0.0,0.0,-0.28444444444444444,-0.0,-0.0,-0.17,1.84,9.59,11.718401088
1671151576.9514353,0,-39.0821533203125,195.7451171875,165.15673828125,1,46.642578125,115.945068359375,-210.482421875,2,99.9678955078125,117.384765625,-215.57958984375,3,242.5045166015625,195.878662109375,140.800048828125,0.0,0.0,0.0,0.0,-0.28444444444444444,-0.0,-0.0,-0.17,1.84,9.59,11.718401088
1671151576.9615467,0,-39.08343505859375,195.741943359375,165.18017578125,1,46.62841796875,115.931640625,-210.468505859375,2,99.976318359375,117.34130859375,-215.56591796875,3,242.5401611328125,195.880126953125,140.80859375,0.0,0.0,0.0,0.0,-0.28444444444444444,-0.0,-0.0,-0.17,1.84,9.59,11.718401088
1671151576.9714484,0,-39.0491943359375,195.743896484375,165.123291015625,1,46.640625,115.914794921875,-210.471435546875,2,99.959228515625,117.352294921875,-215.576904296875,3,242.561279296875,195.902099609375,140.820068359375,0.0,0.0,0.0,0.0,-0.28444444444444444,-0.0,-0.0,-0.17,1.84,9.59,11.718401088
1671151576.9814703,0,-38.99346923828125,195.705078125,165.177734375,1,46.6416015625,115.936279296875,-210.4599609375,2,99.95654296875,117.380859375,-215.570068359375,3,242.5369873046875,195.911865234375,140.85498046875,0.0,0.0,0.0,0.0,-0.28444444444444444,-0.0,-0.0,-0.17,1.84,9.59,11.718401088
1671151576.991422,0,-39.073486328125,195.68310546875,165.15380859375,1,46.647216796875,115.88916015625,-210.451904296875,2,99.9697265625,117.35986328125,-215.593994140625,3,242.5296630859375,195.919677734375,140.831298828125,0.0,0.0,-0.0,0.0,0.2833333333333333,-0.0011111111111111111,0.0011111111111111111,-0.17,1.83,9.6,11.715107552000001
1671151577.0013921,0,-39.0235595703125,195.74853515625,165.175048828125,1,46.650390625,115.952880859375,-210.4619140625,2,99.93701171875,117.39306640625,-215.62109375,3,242.52392578125,195.893798828125,140.789794921875,0.0,0.0,-0.0,0.0,0.2833333333333333,-0.0011111111111111111,0.0011111111111111111,-0.17,1.83,9.6,11.715107552000001
1671151577.0114517,0,-38.9891357421875,195.69580078125,165.193115234375,1,46.6151123046875,115.94580078125,-210.498046875,2,99.971923828125,117.363525390625,-215.582275390625,3,242.5255126953125,195.911376953125,140.800048828125,0.0,0.0,-0.0,0.0,0.2833333333333333,-0.0011111111111111111,0.0011111111111111111,-0.17,1.83,9.6,11.715107552000001
1671151577.0214646,0,-39.0029296875,195.727294921875,165.190185546875,1,46.6378173828125,115.878173828125,-210.437255859375,2,99.95947265625,117.359130859375,-215.60888671875,3,242.5379638671875,195.88671875,140.817138671875,0.0,0.0,-0.0,0.0,0.2833333333333333,-0.0011111111111111111,0.0011111111111111111,-0.17,1.83,9.6,11.715107552000001
1671151577.0314963,0,-39.0096435546875,195.73681640625,165.1826171875,1,46.6375732421875,115.948974609375,-210.42431640625,2,99.951171875,117.400146484375,-215.561279296875,3,242.5562744140625,195.921875,140.836181640625,0.0,0.0,-0.0,0.0,0.0011111111111111111,0.0011111111111111111,0.0011111111111111111,-0.19,1.82,9.6,11.715107552000001
1671151577.0414135,0,-39.014892578125,195.695068359375,165.160888671875,1,46.6317138671875,115.88232421875,-210.4482421875,2,99.9520263671875,117.342529296875,-215.58837890625,3,242.4615478515625,195.96630859375,140.88427734375,0.0,0.0,-0.0,0.0,0.0011111111111111111,0.0011111111111111111,0.0011111111111111111,-0.19,1.82,9.6,11.715107552000001
1671151577.0514119,0,-38.977783203125,195.739990234375,165.1533203125,1,46.6463623046875,115.96923828125,-210.44091796875,2,99.9630126953125,117.41796875,-215.6015625,3,242.540283203125,195.8955078125,140.79248046875,0.0,0.0,-0.0,0.0,0.0011111111111111111,0.0011111111111111111,0.0011111111111111111,-0.19,1.82,9.6,11.715107552000001
1671151577.0614355,0,-38.978515625,195.6904296875,165.17578125,1,46.6279296875,115.93310546875,-210.43017578125,2,99.9495849609375,117.374267578125,-215.6103515625,3,242.5380859375,195.916015625,140.798583984375,0.0,0.0,-0.0,0.0,0.0011111111111111111,0.0011111111111111111,0.0011111111111111111,-0.19,1.82,9.6,11.715107552000001
1671151577.0714169,0,-38.97283935546875,195.697509765625,165.17138671875,1,46.6385498046875,115.893798828125,-210.449462890625,2,99.965087890625,117.3671875,-215.596435546875,3,242.5196533203125,195.895263671875,140.785888671875,0.0,0.0,-0.0,0.0,0.0011111111111111111,0.0011111111111111111,0.0011111111111111111,-0.19,1.82,9.6,11.715107552000001
1671151577.0813813,0,-38.9881591796875,195.682373046875,165.180419921875,1,46.611083984375,115.9140625,-210.470458984375,2,99.961181640625,117.394775390625,-215.57861328125,3,242.5220947265625,195.92333984375,140.817138671875,0.0,0.0,-0.0,0.0,0.0011111111111111111,0.0011111111111111111,0.0011111111111111111,-0.19,1.82,9.6,11.715107552000001
1671151577.0913832,0,-39.0362548828125,195.668701171875,165.126220703125,1,46.6168212890625,115.896240234375,-210.468994140625,2,99.9541015625,117.389892578125,-215.585693359375,3,242.5498046875,195.923828125,140.8310546875,0.0,0.0,-5.7,-5.7,-0.0044444444444444444,0.0022222222222222222,0.2833333333333333,-0.16,1.83,9.61,11.711814016
1671151577.1016214,0,-38.947509765625,195.66943359375,165.1904296875,1,46.6256103515625,115.927734375,-210.47509765625,2,99.945068359375,117.41357421875,-215.581298828125,3,242.5263671875,195.896728515625,140.802001953125,0.0,0.0,-5.7,-5.7,-0.0044444444444444444,0.0022222222222222222,0.2833333333333333,-0.16,1.83,9.61,11.711814016
1671151577.1114638,0,-38.9764404296875,195.698974609375,165.147705078125,1,46.65625,115.927490234375,-210.4931640625,2,99.964599609375,117.352783203125,-215.573486328125,3,242.5135498046875,195.90087890625,140.7822265625,0.0,0.0,-5.7,-5.7,-0.0044444444444444444,0.0022222222222222222,0.2833333333333333,-0.16,1.83,9.61,11.711814016
1671151577.1213605,0,-39.05035400390625,195.7568359375,165.090576171875,1,46.6744384765625,115.911376953125,-210.507080078125,2,99.9881591796875,117.34326171875,-215.594482421875,3,242.524169921875,195.884033203125,140.7978515625,0.0,0.0,-5.7,-5.7,-0.0044444444444444444,0.0022222222222222222,0.2833333333333333,-0.16,1.83,9.61,11.711814016
1671151577.1314328,0,-38.99267578125,195.669189453125,165.133056640625,1,46.66015625,115.932861328125,-210.51806640625,2,100.0008544921875,117.38427734375,-215.665771484375,3,242.5155029296875,195.91650390625,140.828857421875,0.0,0.0,-5.7,-5.7,-0.0044444444444444444,0.0022222222222222222,0.2833333333333333,-0.16,1.83,9.61,11.711814016
1671151577.141446,0,-39.074462890625,195.68359375,165.08544921875,1,46.689208984375,115.896484375,-210.53515625,2,100.006103515625,117.36962890625,-215.684814453125,3,242.544189453125,195.885986328125,140.84326171875,0.0,0.0,-5.7,-5.7,-0.0044444444444444444,0.0022222222222222222,0.2833333333333333,-0.16,1.83,9.61,11.711814016
1671151577.1514583,0,-39.03546142578125,195.737060546875,165.09326171875,1,46.644287109375,115.906494140625,-210.57177734375,2,99.9696044921875,117.3935546875,-215.697509765625,3,242.5186767578125,195.865234375,140.74169921875,-0.0003357427263378405,-0.001534823891830128,-27.5,-27.5,0.0011111111111111111,0.006666666666666667,-0.0011111111111111111,-0.15,1.83,9.61,11.701933408
1671151577.1614516,0,-39.0126953125,195.675048828125,165.150146484375,1,46.6297607421875,115.896240234375,-210.611328125,2,99.9410400390625,117.377197265625,-215.764892578125,3,242.513916015625,195.8369140625,140.74462890625,-0.0003357427263378405,-0.001534823891830128,-27.5,-27.5,0.0011111111111111111,0.006666666666666667,-0.0011111111111111111,-0.15,1.83,9.61,11.701933408
1671151577.171451,0,-39.03485107421875,195.441162109375,165.293701171875,1,46.5577392578125,115.901611328125,-210.86669921875,2,99.8720703125,117.41455078125,-215.98779296875,3,242.5433349609375,195.7236328125,140.875244140625,-0.0003357427263378405,-0.001534823891830128,-27.5,-27.5,0.0011111111111111111,0.006666666666666667,-0.0011111111111111111,-0.15,1.83,9.61,11.701933408
1671151577.181456,0,-39.0291748046875,195.3515625,165.13330078125,1,46.46923828125,116.166259765625,-211.306884765625,2,99.841796875,117.660888671875,-216.45654296875,3,242.4453125,195.562744140625,140.685302734375,-0.012086738148162258,-0.009736539063797374,-35.7,-35.7,-0.0011111111111111111,0.0033333333333333335,0.0044444444444444444,0.32,1.71,9.45,11.70852048
1671151577.191416,0,-39.2105712890625,195.28955078125,164.48095703125,1,46.473388671875,116.850830078125,-212.1474609375,2,99.822265625,118.324462890625,-217.263427734375,3,242.4039306640625,195.50927734375,140.12548828125,-0.012086738148162258,-0.009736539063797374,-35.7,-35.7,-0.0011111111111111111,0.0033333333333333335,0.0044444444444444444,0.32,1.71,9.45,11.70852048
1671151577.2014928,0,-39.3848876953125,195.192138671875,163.434814453125,1,46.5550537109375,117.5810546875,-213.237548828125,2,99.854736328125,119.14404296875,-218.416015625,3,242.32080078125,195.431884765625,139.2041015625,-0.012086738148162258,-0.009736539063797374,-35.7,-35.7,-0.0011111111111111111,0.0033333333333333335,0.0044444444444444444,0.32,1.71,9.45,11.70852048
1671151577.2114375,0,-39.54571533203125,195.2724609375,162.121337890625,1,46.6263427734375,118.33544921875,-214.55224609375,2,99.914306640625,119.79150390625,-219.65185546875,3,242.2484130859375,195.32470703125,138.0439453125,-0.012086738148162258,-0.009736539063797374,-35.7,-35.7,-0.0011111111111111111,0.0033333333333333335,0.0044444444444444444,0.32,1.71,9.45,11.70852048
1671151577.221396,0,-39.82720947265625,195.320556640625,160.4970703125,1,46.6114501953125,118.819091796875,-216.379150390625,2,99.9146728515625,120.328125,-221.46142578125,3,242.1727294921875,195.19091796875,136.48974609375,-0.012086738148162258,-0.009736539063797374,-35.7,-35.7,-0.0011111111111111111,0.0033333333333333335,0.0044444444444444444,0.32,1.71,9.45,11.70852048
1671151577.2313945,0,-39.835205078125,195.282958984375,158.700927734375,1,46.58984375,118.964599609375,-218.12255859375,2,99.8883056640625,120.46826171875,-223.104248046875,3,242.0269775390625,195.200927734375,134.8271484375,-0.012086738148162258,-0.009736539063797374,-35.7,-35.7,-0.0011111111111111111,0.0033333333333333335,0.0044444444444444444,0.32,1.71,9.45,11.70852048
1671151577.2414594,0,-39.79937744140625,195.114990234375,156.4951171875,1,46.54248046875,118.66748046875,-220.2685546875,2,99.769287109375,120.12890625,-225.13330078125,3,241.7889404296875,195.326904296875,132.64599609375,-0.07822805523671683,-0.08254474743248907,-40.9,-40.9,-0.0011111111111111111,0.23555555555555555,-0.04111111111111111,-4.65,1.52,8.75,11.655823904
1671151577.2514105,0,-40.059814453125,194.998779296875,154.306396484375,1,46.40869140625,118.13232421875,-222.68359375,2,99.62890625,119.6240234375,-227.429931640625,3,241.549072265625,195.336181640625,130.377685546875,-0.07822805523671683,-0.08254474743248907,-40.9,-40.9,-0.0011111111111111111,0.23555555555555555,-0.04111111111111111,-4.65,1.52,8.75,11.655823904
1671151577.2615402,0,-40.20220947265625,194.87646484375,151.418701171875,1,46.1937255859375,117.16357421875,-225.13720703125,2,99.509765625,118.708984375,-230.072998046875,3,241.2867431640625,195.5302734375,127.565673828125,-0.07822805523671683,-0.08254474743248907,-40.9,-40.9,-0.0011111111111111111,0.23555555555555555,-0.04111111111111111,-4.65,1.52,8.75,11.655823904
1671151577.2714791,0,-40.43597412109375,194.72900390625,148.333984375,1,45.93212890625,116.041748046875,-227.84130859375,2,99.238037109375,117.580078125,-232.891357421875,3,240.9326171875,195.72314453125,124.406982421875,-0.07822805523671683,-0.08254474743248907,-40.9,-40.9,-0.0011111111111111111,0.23555555555555555,-0.04111111111111111,-4.65,1.52,8.75,11.655823904
1671151577.2814877,0,-40.71234130859375,195.2109375,145.462890625,1,45.732666015625,115.968017578125,-230.416748046875,2,98.9097900390625,117.326904296875,-235.417724609375,3,240.7230224609375,195.88916015625,121.5439453125,-0.07822805523671683,-0.08254474743248907,-40.9,-40.9,-0.0011111111111111111,0.23555555555555555,-0.04111111111111111,-4.65,1.52,8.75,11.655823904
1671151577.2915394,0,-41.0350341796875,195.232666015625,142.316650390625,1,45.40625,115.947509765625,-233.457763671875,2,98.5904541015625,117.271728515625,-238.43701171875,3,240.531494140625,195.91357421875,118.43505859375,-0.18408294052637597,-0.1907018685598934,-44.7,-44.7,0.008888888888888889,-0.15222222222222223,-0.025555555555555557,-3.2,2.02,9.13,11.701933408
1671151577.3014493,0,-40.87164306640625,195.30029296875,139.6279296875,1,45.166015625,115.972412109375,-236.25927734375,2,98.4024658203125,117.33056640625,-241.2509765625,3,240.352783203125,195.83349609375,115.635498046875,-0.18408294052637597,-0.1907018685598934,-44.7,-44.7,0.008888888888888889,-0.15222222222222223,-0.025555555555555557,-3.2,2.02,9.13,11.701933408
1671151577.3114316,0,-40.87811279296875,195.1572265625,136.567138671875,1,44.914306640625,115.931884765625,-239.2578125,2,98.1124267578125,117.316650390625,-244.25341796875,3,240.098876953125,195.998291015625,112.491943359375,-0.18408294052637597,-0.1907018685598934,-44.7,-44.7,0.008888888888888889,-0.15222222222222223,-0.025555555555555557,-3.2,2.02,9.13,11.701933408
1671151577.3215399,0,-41.17449951171875,195.1494140625,133.512939453125,1,44.5819091796875,115.8583984375,-242.267822265625,2,97.7283935546875,117.0595703125,-247.15380859375,3,239.656494140625,196.03759765625,109.468017578125,-0.18408294052637597,-0.1907018685598934,-44.7,-44.7,0.008888888888888889,-0.15222222222222223,-0.025555555555555557,-3.2,2.02,9.13,11.701933408
1671151577.3313365,0,-41.3878173828125,195.3017578125,130.7822265625,1,44.3597412109375,115.9306640625,-244.9775390625,2,97.5550537109375,117.283203125,-249.818603515625,3,239.34814453125,196.1513671875,106.87353515625,-0.3173728028824987,-0.30859552875109514,-49.9,-49.9,-0.2688888888888889,-0.14222222222222222,0.023333333333333334,-2.03,1.52,9.86,11.698639872000001
1671151577.3413715,0,-41.62347412109375,195.077880859375,127.786376953125,1,44.19287109375,115.866943359375,-247.9697265625,2,97.520263671875,117.4189453125,-252.9775390625,3,238.952392578125,196.07275390625,104.0419921875,-0.3173728028824987,-0.30859552875109514,-49.9,-49.9,-0.2688888888888889,-0.14222222222222222,0.023333333333333334,-2.03,1.52,9.86,11.698639872000001
1671151577.351362,0,-41.91339111328125,194.9189453125,125.142822265625,1,44.1109619140625,115.894287109375,-250.674072265625,2,97.393310546875,117.38525390625,-255.653076171875,3,238.8646240234375,195.94384765625,101.292236328125,-0.3173728028824987,-0.30859552875109514,-49.9,-49.9,-0.2688888888888889,-0.14222222222222222,0.023333333333333334,-2.03,1.52,9.86,11.698639872000001
1671151577.3614552,0,-42.16552734375,194.794677734375,122.183349609375,1,44.0546875,115.96435546875,-253.767578125,2,97.308837890625,117.3896484375,-258.75390625,3,238.6455078125,195.811767578125,98.5126953125,-0.3173728028824987,-0.30859552875109514,-49.9,-49.9,-0.2688888888888889,-0.14222222222222222,0.023333333333333334,-2.03,1.52,9.86,11.698639872000001
1671151577.3713934,0,-42.275634765625,195.1611328125,118.881591796875,1,44.033935546875,115.769775390625,-257.0107421875,2,97.2177734375,117.425537109375,-261.849609375,3,238.49462890625,195.860107421875,95.475830078125,-0.3173728028824987,-0.30859552875109514,-49.9,-49.9,-0.2688888888888889,-0.14222222222222222,0.023333333333333334,-2.03,1.52,9.86,11.698639872000001
1671151577.3814037,0,-42.794921875,195.0009765625,115.885009765625,1,44.2158203125,115.616943359375,-260.0732421875,2,97.177734375,117.441162109375,-264.695068359375,3,238.1224365234375,195.91650390625,92.6162109375,-0.3173728028824987,-0.30859552875109514,-49.9,-49.9,-0.2688888888888889,-0.14222222222222222,0.023333333333333334,-2.03,1.52,9.86,11.698639872000001
1671151577.3913927,0,-42.97149658203125,195.19091796875,112.084716796875,1,43.9073486328125,115.606201171875,-263.52587890625,2,96.99267578125,117.27392578125,-268.32568359375,3,237.8477783203125,196.0419921875,89.02001953125,-0.49454903589563903,-0.5112882089659114,-63.4,-63.4,0.017777777777777778,0.02666666666666667,-0.04,-0.92,2.31,9.51,11.678878656
1671151577.4014027,0,-43.3419189453125,195.119384765625,108.92431640625,1,43.705322265625,115.5732421875,-266.6865234375,2,96.7528076171875,117.277587890625,-271.5234375,3,237.4613037109375,196.012451171875,85.739013671875,-0.49454903589563903,-0.5112882089659114,-63.4,-63.4,0.017777777777777778,0.02666666666666667,-0.04,-0.92,2.31,9.51,11.678878656
1671151577.4114616,0,-43.534423828125,195.048583984375,105.287109375,1,43.2259521484375,115.532958984375,-270.472412109375,2,96.248779296875,117.269775390625,-275.361083984375,3,237.0911865234375,195.749267578125,82.171875,-0.49454903589563903,-0.5112882089659114,-63.4,-63.4,0.017777777777777778,0.02666666666666667,-0.04,-0.92,2.31,9.51,11.678878656
1671151577.4214616,0,-43.77362060546875,195.177978515625,101.431640625,1,42.987060546875,115.556640625,-274.39208984375,2,96.019287109375,117.244140625,-279.224609375,3,236.9039306640625,195.64501953125,78.27490234375,-0.49454903589563903,-0.5112882089659114,-63.4,-63.4,0.017777777777777778,0.02666666666666667,-0.04,-0.92,2.31,9.51,11.678878656
1671151577.431422,0,-44.3284912109375,195.034423828125,97.693359375,1,42.9739990234375,115.57470703125,-278.202392578125,2,95.87646484375,117.3896484375,-282.94140625,3,236.595458984375,195.779052734375,74.676513671875,-0.49454903589563903,-0.5112882089659114,-63.4,-63.4,0.017777777777777778,0.02666666666666667,-0.04,-0.92,2.31,9.51,11.678878656
1671151577.441396,0,-44.9296875,195.000244140625,93.283935546875,1,42.6199951171875,115.50244140625,-282.390380859375,2,95.718994140625,117.173095703125,-287.159423828125,3,236.297607421875,195.927001953125,70.46923828125,-0.6734519457870883,-0.6808382857665208,-71.6,-71.6,0.022222222222222223,-0.07555555555555556,0.0077777777777777776,-1.72,2.07,9.64,11.645943296
1671151577.4513884,0,-45.0595703125,194.9287109375,89.2900390625,1,42.50927734375,115.572998046875,-286.41357421875,2,95.4674072265625,117.3662109375,-291.1435546875,3,235.8243408203125,195.867431640625,66.478515625,-0.6734519457870883,-0.6808382857665208,-71.6,-71.6,0.022222222222222223,-0.07555555555555556,0.0077777777777777776,-1.72,2.07,9.64,11.645943296
1671151577.4613843,0,-45.0987548828125,195.3662109375,84.63818359375,1,42.0765380859375,115.514404296875,-291.078857421875,2,94.9881591796875,117.314208984375,-295.80419921875,3,235.2916259765625,195.947265625,61.78076171875,-0.6734519457870883,-0.6808382857665208,-71.6,-71.6,0.022222222222222223,-0.07555555555555556,0.0077777777777777776,-1.72,2.07,9.64,11.645943296
1671151577.471411,0,-45.6094970703125,195.295654296875,79.827880859375,1,41.54638671875,115.539794921875,-295.767822265625,2,94.640869140625,117.168701171875,-300.532958984375,3,235.146728515625,195.91650390625,57.01806640625,-0.6734519457870883,-0.6808382857665208,-71.6,-71.6,0.022222222222222223,-0.07555555555555556,0.0077777777777777776,-1.72,2.07,9.64,11.645943296
1671151577.481404,0,-46.0069580078125,195.39453125,75.236328125,1,40.9473876953125,115.654052734375,-300.225830078125,2,94.2459716796875,117.3173828125,-305.046630859375,3,234.475341796875,196.32763671875,52.484619140625,-0.912308913953152,-0.9142754070645593,-76.1,-76.1,0.023333333333333334,-0.013333333333333334,-0.042222222222222223,-1.51,1.62,10.35,11.665704512
1671151577.491399,0,-46.55084228515625,195.284423828125,70.20849609375,1,40.725341796875,115.799072265625,-305.215087890625,2,94.0174560546875,117.350341796875,-310.015869140625,3,234.2562255859375,196.238037109375,47.453369140625,-0.912308913953152,-0.9142754070645593,-76.1,-76.1,0.023333333333333334,-0.013333333333333334,-0.042222222222222223,-1.51,1.62,10.35,11.665704512
1671151577.5013986,0,-46.95892333984375,195.354248046875,65.59619140625,1,40.3502197265625,115.950439453125,-309.875,2,93.6602783203125,117.426025390625,-314.6650390625,3,233.837646484375,196.287109375,42.87353515625,-0.912308913953152,-0.9142754070645593,-76.1,-76.1,0.023333333333333334,-0.013333333333333334,-0.042222222222222223,-1.51,1.62,10.35,11.665704512
1671151577.5114794,0,-47.338134765625,195.494384765625,60.46044921875,1,40.06201171875,115.809326171875,-314.9453125,2,93.3167724609375,117.286376953125,-319.802490234375,3,233.5067138671875,196.273681640625,37.757080078125,-0.912308913953152,-0.9142754070645593,-76.1,-76.1,0.023333333333333334,-0.013333333333333334,-0.042222222222222223,-1.51,1.62,10.35,11.665704512
1671151577.521403,0,-47.45355224609375,195.87109375,55.11669921875,1,39.794189453125,115.90966796875,-320.195068359375,2,92.994384765625,117.474853515625,-324.682373046875,3,233.2022705078125,196.276611328125,32.54833984375,-0.912308913953152,-0.9142754070645593,-76.1,-76.1,0.023333333333333334,-0.013333333333333334,-0.042222222222222223,-1.51,1.62,10.35,11.665704512
1671151577.5313947,0,-47.8326416015625,195.766845703125,50.145751953125,1,39.52197265625,115.784912109375,-325.28857421875,2,92.8695068359375,117.403564453125,-329.721923828125,3,232.865234375,196.137939453125,27.840576171875,-0.912308913953152,-0.9142754070645593,-76.1,-76.1,0.023333333333333334,-0.013333333333333334,-0.042222222222222223,-1.51,1.62,10.35,11.665704512
1671151577.5415175,0,-48.52099609375,195.640380859375,44.6630859375,1,39.2396240234375,115.86181640625,-330.571533203125,2,92.48974609375,117.35888671875,-335.236083984375,3,232.4052734375,196.271728515625,22.45166015625,-1.160902421183013,-1.1507342128996383,-76.1,-76.1,0.021111111111111112,-0.10222222222222223,-0.04888888888888889,-1.06,2.52,9.83,11.626182080000001
1671151577.5514998,0,-49.01348876953125,195.518798828125,39.699462890625,1,38.9150390625,116.121337890625,-335.3515625,2,92.3040771484375,117.6298828125,-340.05224609375,3,231.933837890625,196.2373046875,17.573974609375,-1.160902421183013,-1.1507342128996383,-76.1,-76.1,0.021111111111111112,-0.10222222222222223,-0.04888888888888889,-1.06,2.52,9.83,11.626182080000001
1671151577.561506,0,-49.59906005859375,195.415771484375,34.2119140625,1,38.7293701171875,116.228759765625,-340.826904296875,2,92.010498046875,117.539794921875,-345.389892578125,3,231.3729248046875,196.30224609375,12.168212890625,-1.160902421183013,-1.1507342128996383,-76.1,-76.1,0.021111111111111112,-0.10222222222222223,-0.04888888888888889,-1.06,2.52,9.83,11.626182080000001
1671151577.5714505,0,-49.95001220703125,195.529541015625,28.670654296875,1,38.4716796875,116.237060546875,-346.3974609375,2,91.75146484375,117.556884765625,-351.090087890625,3,230.9818115234375,196.134033203125,6.79345703125,-1.160902421183013,-1.1507342128996383,-76.1,-76.1,0.021111111111111112,-0.10222222222222223,-0.04888888888888889,-1.06,2.52,9.83,11.626182080000001
1671151577.5814893,0,-50.1741943359375,195.7529296875,23.712646484375,1,38.554443359375,116.112060546875,-351.33837890625,2,91.62353515625,117.669189453125,-355.89990234375,3,230.8018798828125,196.299560546875,1.871337890625,-1.459089925417635,-1.4438376129925732,-76.1,-76.1,-0.0022222222222222222,-0.056666666666666664,-0.044444444444444446,1.45,2.0,8.71,11.668998048
1671151577.5914433,0,-50.6192626953125,195.67626953125,18.302734375,1,38.11669921875,116.18310546875,-356.71484375,2,91.40185546875,117.63134765625,-361.22119140625,3,230.3345947265625,196.411376953125,-3.41064453125,-1.459089925417635,-1.4438376129925732,-76.1,-76.1,-0.0022222222222222222,-0.056666666666666664,-0.044444444444444446,1.45,2.0,8.71,11.668998048
1671151577.6014547,0,-50.97235107421875,195.496826171875,13.397216796875,1,38.0787353515625,116.077392578125,-361.693603515625,2,91.2064208984375,117.80712890625,-366.17578125,3,229.93408203125,196.283935546875,-8.240478515625,-1.459089925417635,-1.4438376129925732,-76.1,-76.1,-0.0022222222222222222,-0.056666666666666664,-0.044444444444444446,1.45,2.0,8.71,11.668998048
1671151577.6114597,0,-51.53411865234375,195.648193359375,7.91650390625,1,37.889892578125,116.32373046875,-367.217529296875,2,90.8509521484375,118.0439453125,-371.641357421875,3,229.4833984375,196.358154296875,-13.58935546875,-1.459089925417635,-1.4438376129925732,-76.1,-76.1,-0.0022222222222222222,-0.056666666666666664,-0.044444444444444446,1.45,2.0,8.71,11.668998048
1671151577.6214855,0,-51.7999267578125,195.773681640625,2.334228515625,1,37.5721435546875,116.355224609375,-372.72802734375,2,90.593994140625,118.062744140625,-377.12255859375,3,229.3619384765625,196.716552734375,-18.9794921875,-1.459089925417635,-1.4438376129925732,-76.1,-76.1,-0.0022222222222222222,-0.056666666666666664,-0.044444444444444446,1.45,2.0,8.71,11.668998048
1671151577.6314967,0,-52.16876220703125,195.6171875,-2.4912109375,1,37.6241455078125,116.29052734375,-377.605712890625,2,90.3682861328125,117.893798828125,-381.93994140625,3,228.9591064453125,196.624267578125,-23.806640625,-1.459089925417635,-1.4438376129925732,-76.1,-76.1,-0.0022222222222222222,-0.056666666666666664,-0.044444444444444446,1.45,2.0,8.71,11.668998048
1671151577.641422,0,-52.813232421875,195.762939453125,-8.199462890625,1,37.1982421875,116.47802734375,-383.19140625,2,89.9906005859375,118.042236328125,-387.580078125,3,228.190673828125,196.30224609375,-29.158447265625,-1.763800431192535,-1.7811151632222437,-76.1,-76.1,0.03333333333333333,0.06444444444444444,-0.05,0.1,3.38,8.89,11.642649760000001
1671151577.651418,0,-53.06097412109375,195.927490234375,-13.11328125,1,36.9189453125,116.59375,-387.976318359375,2,89.9267578125,118.041015625,-392.413330078125,3,227.9857177734375,196.3564453125,-34.052734375,-1.763800431192535,-1.7811151632222437,-76.1,-76.1,0.03333333333333333,0.06444444444444444,-0.05,0.1,3.38,8.89,11.642649760000001
1671151577.6614578,0,-53.367431640625,195.8671875,-18.525390625,1,36.679931640625,116.5224609375,-393.5947265625,2,89.4117431640625,118.36572265625,-397.5283203125,3,227.5347900390625,196.428955078125,-39.46142578125,-1.763800431192535,-1.7811151632222437,-76.1,-76.1,0.03333333333333333,0.06444444444444444,-0.05,0.1,3.38,8.89,11.642649760000001
1671151577.6713927,0,-53.8511962890625,195.96923828125,-23.9580078125,1,36.139892578125,116.436279296875,-399.026611328125,2,89.1993408203125,118.16015625,-403.1826171875,3,227.1168212890625,196.42529296875,-44.91796875,-1.763800431192535,-1.7811151632222437,-76.1,-76.1,0.03333333333333333,0.06444444444444444,-0.05,0.1,3.38,8.89,11.642649760000001
1671151577.681434,0,-54.21728515625,196.25341796875,-28.98046875,1,35.906982421875,116.760498046875,-403.91650390625,2,88.959716796875,118.291015625,-408.21484375,3,226.7529296875,196.514892578125,-49.7724609375,-2.045104872617026,-2.01642285113845,-76.1,-76.1,-0.008888888888888889,0.012222222222222223,-0.05,2.24,3.03,7.74,11.662410976
1671151577.6914396,0,-54.60546875,196.291748046875,-34.56005859375,1,35.47998046875,116.629638671875,-409.43798828125,2,88.566162109375,118.200927734375,-413.773193359375,3,226.427490234375,196.4501953125,-55.1982421875,-2.045104872617026,-2.01642285113845,-76.1,-76.1,-0.008888888888888889,0.012222222222222223,-0.05,2.24,3.03,7.74,11.662410976
1671151577.7014,0,-55.1549072265625,196.257080078125,-39.561279296875,1,35.083740234375,116.90625,-414.399658203125,2,88.2603759765625,118.2978515625,-418.74658203125,3,226.0452880859375,196.618408203125,-60.38330078125,-2.045104872617026,-2.01642285113845,-76.1,-76.1,-0.008888888888888889,0.012222222222222223,-0.05,2.24,3.03,7.74,11.662410976
1671151577.7114654,0,-55.37274169921875,196.39501953125,-45.24853515625,1,34.5311279296875,116.728271484375,-419.94677734375,2,87.8294677734375,118.098388671875,-424.22265625,3,225.5733642578125,196.52880859375,-65.875732421875,-2.045104872617026,-2.01642285113845,-76.1,-76.1,-0.008888888888888889,0.012222222222222223,-0.05,2.24,3.03,7.74,11.662410976
1671151577.7214653,0,-55.71551513671875,196.497314453125,-50.720703125,1,34.4195556640625,116.939208984375,-425.42529296875,2,87.5806884765625,118.0986328125,-429.7626953125,3,225.2972412109375,196.785888671875,-71.422119140625,-2.045104872617026,-2.01642285113845,-76.1,-76.1,-0.008888888888888889,0.012222222222222223,-0.05,2.24,3.03,7.74,11.662410976
1671151577.7314508,0,-56.112548828125,196.59912109375,-55.78466796875,1,34.07177734375,116.922119140625,-430.4794921875,2,87.220703125,118.115478515625,-434.85888671875,3,224.8372802734375,196.828125,-76.423583984375,-2.045104872617026,-2.01642285113845,-76.1,-76.1,-0.008888888888888889,0.012222222222222223,-0.05,2.24,3.03,7.74,11.662410976
1671151577.741362,0,-56.52783203125,196.5537109375,-61.300048828125,1,33.7119140625,116.90625,-435.803466796875,2,86.8642578125,118.23876953125,-440.38623046875,3,224.37548828125,196.8017578125,-81.904541015625,-2.3421412589327755,-2.3123560827819465,-79.4,-72.9,-0.03,-0.06555555555555556,0.008888888888888889,-1.13,2.89,13.11,11.682172192000001
1671151577.7514417,0,-56.97991943359375,196.67333984375,-66.82080078125,1,33.607177734375,117.256103515625,-441.27685546875,2,86.483642578125,118.073974609375,-445.662353515625,3,223.988525390625,196.863037109375,-87.366455078125,-2.3421412589327755,-2.3123560827819465,-79.4,-72.9,-0.03,-0.06555555555555556,0.008888888888888889,-1.13,2.89,13.11,11.682172192000001
1671151577.7614043,0,-57.2313232421875,196.845458984375,-71.8271484375,1,33.63916015625,117.568115234375,-446.204345703125,2,86.223388671875,118.0126953125,-450.7373046875,3,223.7236328125,196.83837890625,-92.325439453125,-2.3421412589327755,-2.3123560827819465,-79.4,-72.9,-0.03,-0.06555555555555556,0.008888888888888889,-1.13,2.89,13.11,11.682172192000001
1671151577.7714224,0,-57.84332275390625,196.73779296875,-77.546142578125,1,33.5384521484375,117.57275390625,-451.742431640625,2,86.06396484375,118.121826171875,-456.359375,3,223.214599609375,196.96435546875,-97.876708984375,-2.3421412589327755,-2.3123560827819465,-79.4,-72.9,-0.03,-0.06555555555555556,0.008888888888888889,-1.13,2.89,13.11,11.682172192000001
1671151577.781534,0,-58.404296875,196.7529296875,-82.67236328125,1,33.418212890625,117.743896484375,-456.820068359375,2,86.0162353515625,118.225341796875,-461.357177734375,3,222.7918701171875,197.01123046875,-102.759521484375,-2.3421412589327755,-2.3123560827819465,-79.4,-72.9,-0.03,-0.06555555555555556,0.008888888888888889,-1.13,2.89,13.11,11.682172192000001
1671151577.791447,0,-58.58013916015625,197.05224609375,-88.441162109375,1,33.4874267578125,117.40380859375,-462.597412109375,2,85.892333984375,118.21923828125,-466.90185546875,3,222.380615234375,196.8486328125,-108.1875,-2.640472652907256,-2.5892958687640455,-97.7,-54.5,0.012222222222222223,-0.015555555555555555,-0.025555555555555557,-1.48,2.64,9.1,11.665704512
1671151577.801401,0,-59.00164794921875,196.866455078125,-93.79296875,1,33.4769287109375,117.1552734375,-467.8251953125,2,86.2227783203125,118.638671875,-471.697509765625,3,221.9224853515625,196.953369140625,-113.104248046875,-2.640472652907256,-2.5892958687640455,-97.7,-54.5,0.012222222222222223,-0.015555555555555555,-0.025555555555555557,-1.48,2.64,9.1,11.665704512
1671151577.8114736,0,-59.592041015625,197.21337890625,-100.1494140625,1,33.6480712890625,117.112060546875,-473.7919921875,2,86.77880859375,118.299072265625,-477.636962890625,3,221.447509765625,197.00146484375,-118.478759765625,-2.640472652907256,-2.5892958687640455,-97.7,-54.5,0.012222222222222223,-0.015555555555555555,-0.025555555555555557,-1.48,2.64,9.1,11.665704512
1671151577.8213942,0,-60.36517333984375,197.2099609375,-106.439453125,1,35.03564453125,117.397216796875,-479.638916015625,2,87.9088134765625,118.189208984375,-483.3076171875,3,220.6617431640625,197.013671875,-123.3037109375,-2.640472652907256,-2.5892958687640455,-97.7,-54.5,0.012222222222222223,-0.015555555555555555,-0.025555555555555557,-1.48,2.64,9.1,11.665704512
1671151577.831532,0,-60.8922119140625,197.34765625,-112.229248046875,1,36.665771484375,117.6259765625,-484.81787109375,2,89.2462158203125,118.092529296875,-488.44287109375,3,220.1019287109375,196.798583984375,-127.5078125,-2.640472652907256,-2.5892958687640455,-97.7,-54.5,0.012222222222222223,-0.015555555555555555,-0.025555555555555557,-1.48,2.64,9.1,11.665704512
1671151577.841451,0,-61.524658203125,197.489501953125,-118.919677734375,1,38.5662841796875,117.785400390625,-490.74462890625,2,91.1204833984375,118.0419921875,-494.066162109375,3,219.5445556640625,196.8671875,-132.156494140625,-2.9518980132089134,-2.9128559304604846,-100.0,-56.0,-0.07888888888888888,0.27,-0.11333333333333333,1.49,2.0,10.99,11.645943296
1671151577.8515491,0,-62.147216796875,197.60009765625,-125.7314453125,1,40.3211669921875,117.372802734375,-496.71484375,2,93.848388671875,118.588134765625,-499.329833984375,3,219.018310546875,197.072509765625,-136.781982421875,-2.9518980132089134,-2.9128559304604846,-100.0,-56.0,-0.07888888888888888,0.27,-0.11333333333333333,1.49,2.0,10.99,11.645943296
1671151577.8614936,0,-62.69873046875,197.65478515625,-131.80810546875,1,42.3919677734375,117.021728515625,-502.228515625,2,96.316162109375,118.62060546875,-504.08349609375,3,218.5919189453125,197.053955078125,-140.77783203125,-2.9518980132089134,-2.9128559304604846,-100.0,-56.0,-0.07888888888888888,0.27,-0.11333333333333333,1.49,2.0,10.99,11.645943296
1671151577.87161,0,-63.183349609375,198.090576171875,-138.902587890625,1,44.2401123046875,117.31494140625,-508.192626953125,2,98.3797607421875,118.18505859375,-509.91650390625,3,217.5218505859375,197.4765625,-145.47119140625,-2.9518980132089134,-2.9128559304604846,-100.0,-56.0,-0.07888888888888888,0.27,-0.11333333333333333,1.49,2.0,10.99,11.645943296
1671151577.8814979,0,-63.613037109375,198.026123046875,-145.094482421875,1,46.7489013671875,117.99072265625,-513.388427734375,2,101.269775390625,118.40869140625,-514.600341796875,3,216.95068359375,197.884521484375,-149.449462890625,-3.3177616584239202,-3.1103206167937545,-100.0,-54.9,0.25,-0.0077777777777777776,-0.6788888888888889,-0.82,1.84,7.74,11.678878656
1671151577.8914905,0,-64.29766845703125,197.412841796875,-152.011962890625,1,49.7926025390625,118.20263671875,-519.261962890625,2,104.6873779296875,118.654296875,-520.298583984375,3,216.802978515625,197.747314453125,-153.9912109375,-3.3177616584239202,-3.1103206167937545,-100.0,-54.9,0.25,-0.0077777777777777776,-0.6788888888888889,-0.82,1.84,7.74,11.678878656
1671151577.9014149,0,-64.6451416015625,197.800048828125,-159.2099609375,1,52.806884765625,118.2861328125,-525.25732421875,2,108.129150390625,118.906494140625,-525.8837890625,3,216.682861328125,197.74853515625,-158.649658203125,-3.3177616584239202,-3.1103206167937545,-100.0,-54.9,0.25,-0.0077777777777777776,-0.6788888888888889,-0.82,1.84,7.74,11.678878656
1671151577.911458,0,-64.85400390625,197.904296875,-165.48779296875,1,55.321044921875,118.43310546875,-530.676513671875,2,110.3607177734375,118.6728515625,-531.07861328125,3,216.2562255859375,197.73046875,-162.65625,-3.3177616584239202,-3.1103206167937545,-100.0,-54.9,0.25,-0.0077777777777777776,-0.6788888888888889,-0.82,1.84,7.74,11.678878656
1671151577.9213934,0,-65.29193115234375,197.896728515625,-172.611083984375,1,58.261962890625,118.312255859375,-536.575927734375,2,112.8968505859375,118.14599609375,-536.524658203125,3,215.8271484375,197.89892578125,-167.255859375,-3.3177616584239202,-3.1103206167937545,-100.0,-54.9,0.25,-0.0077777777777777776,-0.6788888888888889,-0.82,1.84,7.74,11.678878656
1671151577.9313164,0,-65.40447998046875,197.923828125,-178.926025390625,1,61.0467529296875,118.568359375,-541.97705078125,2,115.4996337890625,118.2216796875,-541.2568359375,3,215.2908935546875,198.015380859375,-171.218505859375,-3.3177616584239202,-3.1103206167937545,-100.0,-54.9,0.25,-0.0077777777777777776,-0.6788888888888889,-0.82,1.84,7.74,11.678878656
1671151577.941373,0,-65.76031494140625,197.8994140625,-186.256103515625,1,64.5067138671875,118.074951171875,-547.777587890625,2,118.9893798828125,118.480712890625,-546.442626953125,3,215.086181640625,198.13623046875,-175.702880859375,-3.3177616584239202,-3.1103206167937545,-100.0,-54.9,0.25,-0.0077777777777777776,-0.6788888888888889,-0.82,1.84,7.74,11.678878656
1671151577.9513578,0,-65.821044921875,198.044189453125,-193.259765625,1,68.3067626953125,117.82373046875,-553.770263671875,2,123.0509033203125,118.940673828125,-552.09521484375,3,215.1259765625,197.815185546875,-180.046630859375,-3.7064558090299,-3.3513838943043237,-95.5,-17.8,0.09333333333333334,0.012222222222222223,-0.9077777777777778,-1.64,1.7,6.02,11.678878656
1671151577.9615083,0,-66.03082275390625,197.794189453125,-199.9853515625,1,71.5810546875,117.94873046875,-558.77197265625,2,126.05029296875,119.33203125,-556.78125,3,215.0286865234375,197.7001953125,-184.21142578125,-3.7064558090299,-3.3513838943043237,-95.5,-17.8,0.09333333333333334,0.012222222222222223,-0.9077777777777778,-1.64,1.7,6.02,11.678878656
1671151577.971393,0,-66.16473388671875,197.931396484375,-207.010009765625,1,75.468017578125,117.68310546875,-564.405517578125,2,129.2962646484375,118.55029296875,-561.3994140625,3,214.8599853515625,197.693359375,-188.14892578125,-3.7064558090299,-3.3513838943043237,-95.5,-17.8,0.09333333333333334,0.012222222222222223,-0.9077777777777778,-1.64,1.7,6.02,11.678878656
1671151577.9813938,0,-66.2196044921875,198.018798828125,-213.34765625,1,78.841552734375,117.220458984375,-569.342529296875,2,133.095458984375,118.281494140625,-565.7724609375,3,214.53466796875,197.492431640625,-191.362548828125,-3.7064558090299,-3.3513838943043237,-95.5,-17.8,0.09333333333333334,0.012222222222222223,-0.9077777777777778,-1.64,1.7,6.02,11.678878656
1671151577.9913936,0,-66.25732421875,197.973388671875,-220.818359375,1,83.595458984375,117.724365234375,-574.376953125,2,137.53955078125,118.453857421875,-570.077392578125,3,214.22998046875,197.623779296875,-195.0625,-4.100425916764046,-3.539303894560275,-83.9,3.5,0.03888888888888889,-0.0022222222222222222,-0.9344444444444444,-3.27,0.75,10.32,11.636062688
1671151578.001394,0,-66.30352783203125,197.861328125,-227.78369140625,1,88.2586669921875,117.734130859375,-579.350830078125,2,142.148193359375,118.535400390625,-574.301513671875,3,213.861572265625,197.64794921875,-198.359130859375,-4.100425916764046,-3.539303894560275,-83.9,3.5,0.03888888888888889,-0.0022222222222222222,-0.9344444444444444,-3.27,0.75,10.32,11.636062688
1671151578.0113964,0,-66.1544189453125,197.7392578125,-234.046142578125,1,92.89892578125,118.2177734375,-583.81640625,2,146.095947265625,118.543212890625,-577.78955078125,3,213.6240234375,197.500732421875,-201.12060546875,-4.100425916764046,-3.539303894560275,-83.9,3.5,0.03888888888888889,-0.0022222222222222222,-0.9344444444444444,-3.27,0.75,10.32,11.636062688
1671151578.0213943,0,-65.8983154296875,198.05322265625,-240.605712890625,1,98.208984375,119.20654296875,-588.587646484375,2,150.9263916015625,118.74072265625,-581.4677734375,3,213.4227294921875,197.862548828125,-204.024169921875,-4.100425916764046,-3.539303894560275,-83.9,3.5,0.03888888888888889,-0.0022222222222222222,-0.9344444444444444,-3.27,0.75,10.32,11.636062688
1671151578.031392,0,-65.701171875,197.791015625,-246.37158203125,1,102.6685791015625,119.19189453125,-592.55908203125,2,155.1727294921875,118.538818359375,-584.630126953125,3,213.322509765625,197.743408203125,-206.321044921875,-4.493292869825939,-3.6490917660727487,-80.0,10.0,0.0,0.0033333333333333335,-1.308888888888889,-3.82,5.17,11.43,11.711814016
1671151578.0413938,0,-65.43157958984375,197.74462890625,-252.333251953125,1,107.51953125,119.185546875,-596.2958984375,2,159.9010009765625,118.304443359375,-587.828857421875,3,213.018798828125,197.86669921875,-208.684326171875,-4.493292869825939,-3.6490917660727487,-80.0,10.0,0.0,0.0033333333333333335,-1.308888888888889,-3.82,5.17,11.43,11.711814016
1671151578.051458,0,-65.389404296875,197.562255859375,-257.93408203125,1,112.3612060546875,119.506103515625,-599.845703125,2,164.4853515625,118.208984375,-590.801513671875,3,212.6455078125,197.77783203125,-210.667236328125,-4.493292869825939,-3.6490917660727487,-80.0,10.0,0.0,0.0033333333333333335,-1.308888888888889,-3.82,5.17,11.43,11.711814016
1671151578.0615082,0,-65.03594970703125,197.670166015625,-262.81787109375,1,116.5074462890625,119.203857421875,-602.68798828125,2,168.474853515625,118.2607421875,-593.087646484375,3,212.133544921875,197.644287109375,-212.142822265625,-4.493292869825939,-3.6490917660727487,-80.0,10.0,0.0,0.0033333333333333335,-1.308888888888889,-3.82,5.17,11.43,11.711814016
1671151578.071393,0,-65.0303955078125,197.63330078125,-268.5517578125,1,121.2236328125,118.722900390625,-605.253173828125,2,173.4364013671875,118.282958984375,-595.160888671875,3,211.7730712890625,197.7578125,-213.610595703125,-4.493292869825939,-3.6490917660727487,-80.0,10.0,0.0,0.0033333333333333335,-1.308888888888889,-3.82,5.17,11.43,11.711814016
1671151578.0813937,0,-64.724365234375,197.38916015625,-273.5615234375,1,125.730224609375,118.3974609375,-607.654052734375,2,178.215087890625,118.255859375,-597.326416015625,3,211.406005859375,197.70703125,-214.799560546875,-4.853304998953344,-3.6567658855319,-80.0,10.0,0.03333333333333333,0.06777777777777778,-1.33,5.43,2.11,9.29,11.705226944
1671151578.0914,0,-63.9815673828125,197.6611328125,-278.8955078125,1,131.160888671875,118.10595703125,-609.974609375,2,183.6060791015625,118.302734375,-598.836669921875,3,210.919921875,197.70263671875,-216.0751953125,-4.853304998953344,-3.6567658855319,-80.0,10.0,0.03333333333333333,0.06777777777777778,-1.33,5.43,2.11,9.29,11.705226944
1671151578.101393,0,-63.18426513671875,197.6728515625,-284.24853515625,1,136.5888671875,118.14453125,-611.831787109375,2,189.1343994140625,118.2275390625,-600.25537109375,3,210.3369140625,197.71923828125,-217.1005859375,-4.853304998953344,-3.6567658855319,-80.0,10.0,0.03333333333333333,0.06777777777777778,-1.33,5.43,2.11,9.29,11.705226944
1671151578.111503,0,-62.56268310546875,197.855224609375,-288.972412109375,1,142.0546875,118.43115234375,-614.0302734375,2,194.2664794921875,118.391845703125,-601.18212890625,3,209.718505859375,197.72412109375,-217.84033203125,-4.853304998953344,-3.6567658855319,-80.0,10.0,0.03333333333333333,0.06777777777777778,-1.33,5.43,2.11,9.29,11.705226944
1671151578.1213949,0,-61.730712890625,197.963623046875,-294.05029296875,1,147.989990234375,118.372314453125,-615.870849609375,2,200.148681640625,118.81689453125,-602.118896484375,3,209.0775146484375,197.535888671875,-218.383056640625,-4.853304998953344,-3.6567658855319,-80.0,10.0,0.03333333333333333,0.06777777777777778,-1.33,5.43,2.11,9.29,11.705226944
1671151578.131396,0,-60.81207275390625,197.9873046875,-298.558349609375,1,153.4791259765625,118.49560546875,-617.173095703125,2,205.696533203125,119.033935546875,-602.342041015625,3,208.4940185546875,197.54150390625,-218.84765625,-5.18808846035879,-3.6485162071133126,-80.0,10.0,0.016666666666666666,-0.008888888888888889,-1.5044444444444445,2.65,2.68,9.45,11.678878656
1671151578.1413965,0,-59.99005126953125,197.73291015625,-303.471435546875,1,159.531005859375,118.4755859375,-618.587646484375,2,211.87890625,118.58349609375,-602.292724609375,3,207.9520263671875,197.49267578125,-219.214111328125,-5.18808846035879,-3.6485162071133126,-80.0,10.0,0.016666666666666666,-0.008888888888888889,-1.5044444444444445,2.65,2.68,9.45,11.678878656
1671151578.151423,0,-59.43255615234375,197.563720703125,-308.626708984375,1,165.5157470703125,118.296142578125,-619.75732421875,2,218.1126708984375,117.436767578125,-601.511474609375,3,207.2786865234375,197.510986328125,-219.703369140625,-5.18808846035879,-3.6485162071133126,-80.0,10.0,0.016666666666666666,-0.008888888888888889,-1.5044444444444445,2.65,2.68,9.45,11.678878656
1671151578.1614583,0,-58.946044921875,197.140380859375,-312.943359375,1,170.622802734375,117.946044921875,-620.8505859375,2,223.4732666015625,116.636474609375,-601.008544921875,3,206.489990234375,197.39453125,-220.0458984375,-5.18808846035879,-3.6485162071133126,-80.0,10.0,0.016666666666666666,-0.008888888888888889,-1.5044444444444445,2.65,2.68,9.45,11.678878656
1671151578.171397,0,-58.24951171875,196.990966796875,-318.145751953125,1,176.392333984375,117.74951171875,-621.894775390625,2,229.155517578125,116.158935546875,-600.87548828125,3,205.863525390625,197.385498046875,-220.53857421875,-5.18808846035879,-3.6485162071133126,-80.0,10.0,0.016666666666666666,-0.008888888888888889,-1.5044444444444445,2.65,2.68,9.45,11.678878656
1671151578.1813822,0,-57.0670166015625,197.432861328125,-322.486083984375,1,181.80712890625,117.901611328125,-622.762939453125,2,234.4058837890625,116.123046875,-601.0263671875,3,205.3446044921875,197.418701171875,-220.84521484375,-5.513231309193679,-3.636141689485432,-80.0,10.0,0.07444444444444444,0.08777777777777777,-1.7055555555555555,2.51,1.51,7.26,11.701933408
1671151578.1913953,0,-55.98773193359375,197.525390625,-327.4990234375,1,187.9346923828125,117.96875,-623.640380859375,2,239.572265625,116.574951171875,-601.728759765625,3,204.776611328125,197.373046875,-221.41845703125,-5.513231309193679,-3.636141689485432,-80.0,10.0,0.07444444444444444,0.08777777777777777,-1.7055555555555555,2.51,1.51,7.26,11.701933408
1671151578.2013614,0,-54.98638916015625,197.42431640625,-331.894775390625,1,193.2584228515625,117.93896484375,-624.375732421875,2,244.6668701171875,116.978271484375,-602.053955078125,3,204.0137939453125,197.36474609375,-221.928466796875,-5.513231309193679,-3.636141689485432,-80.0,10.0,0.07444444444444444,0.08777777777777777,-1.7055555555555555,2.51,1.51,7.26,11.701933408
1671151578.211511,0,-53.28448486328125,197.314208984375,-336.293212890625,1,200.5771484375,118.677978515625,-624.41259765625,2,249.9661865234375,117.9384765625,-602.58740234375,3,203.4168701171875,197.243896484375,-222.325439453125,-5.513231309193679,-3.636141689485432,-80.0,10.0,0.07444444444444444,0.08777777777777777,-1.7055555555555555,2.51,1.51,7.26,11.701933408
1671151578.2213967,0,-51.6080322265625,197.638916015625,-340.933837890625,1,206.24658203125,118.003173828125,-624.65625,2,255.19873046875,118.1982421875,-602.486328125,3,202.86328125,197.288818359375,-222.82470703125,-5.513231309193679,-3.636141689485432,-80.0,10.0,0.07444444444444444,0.08777777777777777,-1.7055555555555555,2.51,1.51,7.26,11.701933408
1671151578.2313938,0,-50.393310546875,197.401611328125,-345.134521484375,1,211.8577880859375,117.517578125,-624.55810546875,2,260.3082275390625,118.44091796875,-602.412841796875,3,202.2447509765625,197.249755859375,-223.222412109375,-5.831563377008571,-3.6135510003275573,-80.0,10.0,0.05555555555555555,-0.0011111111111111111,-1.6788888888888889,0.34,1.75,8.21,11.701933408
1671151578.2413998,0,-49.0145263671875,197.161865234375,-350.020263671875,1,218.41748046875,116.7080078125,-624.061279296875,2,265.9644775390625,118.7998046875,-602.170166015625,3,201.617431640625,197.15380859375,-223.7890625,-5.831563377008571,-3.6135510003275573,-80.0,10.0,0.05555555555555555,-0.0011111111111111111,-1.6788888888888889,0.34,1.75,8.21,11.701933408
1671151578.2513986,0,-47.80413818359375,197.08349609375,-355.06787109375,1,224.72265625,116.133544921875,-623.9541015625,2,271.9127197265625,118.778564453125,-601.75537109375,3,201.0367431640625,197.197021484375,-224.3798828125,-5.831563377008571,-3.6135510003275573,-80.0,10.0,0.05555555555555555,-0.0011111111111111111,-1.6788888888888889,0.34,1.75,8.21,11.701933408
1671151578.2614696,0,-46.96722412109375,196.7373046875,-359.664794921875,1,230.0277099609375,116.35888671875,-624.628173828125,2,276.812255859375,118.500244140625,-601.02880859375,3,200.6160888671875,197.072509765625,-224.7958984375,-5.831563377008571,-3.6135510003275573,-80.0,10.0,0.05555555555555555,-0.0011111111111111111,-1.6788888888888889,0.34,1.75,8.21,11.701933408
1671151578.271402,0,-44.91754150390625,196.84375,-364.363525390625,1,235.9088134765625,117.052734375,-625.1953125,2,282.741943359375,118.6064453125,-600.29150390625,3,200.0648193359375,197.1337890625,-225.489013671875,-5.831563377008571,-3.6135510003275573,-80.0,10.0,0.05555555555555555,-0.0011111111111111111,-1.6788888888888889,0.34,1.75,8.21,11.701933408
1671151578.2813928,0,-42.92718505859375,197.46044921875,-368.49560546875,1,241.226318359375,117.399169921875,-625.90625,2,287.876220703125,118.590576171875,-599.801513671875,3,199.7193603515625,197.15234375,-226.145751953125,-6.1568021523367,-3.5857323172881364,-80.0,10.0,0.08555555555555555,0.07444444444444444,-1.71,-1.15,2.01,9.89,11.547137216000001
1671151578.2913942,0,-40.8409423828125,197.5634765625,-372.93359375,1,246.8477783203125,117.991455078125,-625.987548828125,2,293.2625732421875,118.92041015625,-599.175048828125,3,199.3739013671875,197.15576171875,-226.773193359375,-6.1568021523367,-3.5857323172881364,-80.0,10.0,0.08555555555555555,0.07444444444444444,-1.71,-1.15,2.01,9.89,11.547137216000001
1671151578.3013732,0,-39.30499267578125,197.410400390625,-377.187744140625,1,252.3255615234375,118.279541015625,-626.345458984375,2,298.9505615234375,118.68115234375,-598.67529296875,3,198.88232421875,197.117919921875,-227.29931640625,-6.1568021523367,-3.5857323172881364,-80.0,10.0,0.08555555555555555,0.07444444444444444,-1.71,-1.15,2.01,9.89,11.547137216000001
1671151578.311487,0,-37.57080078125,196.7119140625,-382.043212890625,1,258.142333984375,118.730712890625,-626.057373046875,2,304.3052978515625,118.823974609375,-597.627685546875,3,198.23095703125,196.98193359375,-227.89111328125,-6.1568021523367,-3.5857323172881364,-80.0,10.0,0.08555555555555555,0.07444444444444444,-1.71,-1.15,2.01,9.89,11.547137216000001
1671151578.3213925,0,-35.71832275390625,196.6865234375,-386.76611328125,1,264.12646484375,118.689453125,-625.64794921875,2,309.7802734375,118.4580078125,-596.583984375,3,197.832275390625,197.015380859375,-228.53759765625,-6.1568021523367,-3.5857323172881364,-80.0,10.0,0.08555555555555555,0.07444444444444444,-1.71,-1.15,2.01,9.89,11.547137216000001
1671151578.3313935,0,-33.75341796875,196.3310546875,-390.765869140625,1,269.5010986328125,118.9326171875,-625.35595703125,2,314.9708251953125,118.48828125,-595.6240234375,3,197.3770751953125,196.87939453125,-229.07275390625,-6.1568021523367,-3.5857323172881364,-80.0,10.0,0.08555555555555555,0.07444444444444444,-1.71,-1.15,2.01,9.89,11.547137216000001
1671151578.3413975,0,-31.49505615234375,196.005615234375,-395.076171875,1,275.51513671875,118.8349609375,-624.728271484375,2,320.4666748046875,118.528564453125,-594.244384765625,3,197.158935546875,196.842529296875,-229.75537109375,-6.465301754594555,-3.5639570033227965,-80.0,10.0,0.0077777777777777776,0.051111111111111114,-1.6333333333333333,-4.5,2.83,13.7,11.665704512
1671151578.3514032,0,-29.22314453125,196.260009765625,-399.461669921875,1,281.5836181640625,119.073486328125,-624.316650390625,2,325.8890380859375,118.83984375,-592.694580078125,3,196.7213134765625,196.78076171875,-230.46875,-6.465301754594555,-3.5639570033227965,-80.0,10.0,0.0077777777777777776,0.051111111111111114,-1.6333333333333333,-4.5,2.83,13.7,11.665704512
1671151578.3615403,0,-27.0284423828125,196.375,-403.458740234375,1,287.0291748046875,119.186279296875,-623.632080078125,2,330.849853515625,118.94384765625,-591.38330078125,3,196.3388671875,196.732177734375,-231.117919921875,-6.465301754594555,-3.5639570033227965,-80.0,10.0,0.0077777777777777776,0.051111111111111114,-1.6333333333333333,-4.5,2.83,13.7,11.665704512
1671151578.3714895,0,-24.24713134765625,196.34326171875,-407.869873046875,1,293.04541015625,119.174560546875,-622.74951171875,2,336.421875,119.05810546875,-589.814453125,3,196.072509765625,196.69140625,-231.78125,-6.465301754594555,-3.5639570033227965,-80.0,10.0,0.0077777777777777776,0.051111111111111114,-1.6333333333333333,-4.5,2.83,13.7,11.665704512
1671151578.3814871,0,-22.13555908203125,196.103271484375,-411.79638671875,1,298.5159912109375,119.205322265625,-621.880126953125,2,341.1220703125,119.13525390625,-588.175537109375,3,195.63720703125,196.70654296875,-232.453857421875,-6.798166686135214,-3.542709285070273,-80.0,10.0,0.06222222222222222,0.0811111111111111,-1.6422222222222222,-0.68,1.87,10.17,11.688759264
1671151578.3914926,0,-19.44659423828125,196.13134765625,-415.89208984375,1,304.51318359375,119.22998046875,-620.852294921875,2,346.2530517578125,119.587890625,-586.30322265625,3,195.3385009765625,196.794189453125,-233.163330078125,-6.798166686135214,-3.542709285070273,-80.0,10.0,0.06222222222222222,0.0811111111111111,-1.6422222222222222,-0.68,1.87,10.17,11.688759264
1671151578.401499,0,-17.2120361328125,195.98876953125,-420.078857421875,1,309.46240234375,119.151123046875,-620.083251953125,2,351.6624755859375,119.432373046875,-584.806396484375,3,194.8751220703125,196.793701171875,-233.762939453125,-6.798166686135214,-3.542709285070273,-80.0,10.0,0.06222222222222222,0.0811111111111111,-1.6422222222222222,-0.68,1.87,10.17,11.688759264
1671151578.411458,0,-14.1141357421875,195.804443359375,-424.39794921875,1,315.34619140625,119.12939453125,-618.949462890625,2,357.1026611328125,119.378662109375,-582.866455078125,3,194.459716796875,196.812744140625,-234.56298828125,-6.798166686135214,-3.542709285070273,-80.0,10.0,0.06222222222222222,0.0811111111111111,-1.6422222222222222,-0.68,1.87,10.17,11.688759264
1671151578.4214933,0,-11.24365234375,196.50048828125,-428.497314453125,1,321.4498291015625,119.086181640625,-617.842041015625,2,362.6536865234375,119.238037109375,-581.030517578125,3,194.1812744140625,196.76416015625,-235.321533203125,-6.798166686135214,-3.542709285070273,-80.0,10.0,0.06222222222222222,0.0811111111111111,-1.6422222222222222,-0.68,1.87,10.17,11.688759264
1671151578.4314873,0,-8.248046875,196.680908203125,-432.29931640625,1,326.8521728515625,119.311279296875,-616.28955078125,2,367.82470703125,119.0107421875,-579.395263671875,3,194.045166015625,196.6796875,-236.06689453125,-7.096354190369836,-3.520454338638736,-80.0,10.0,0.057777777777777775,0.04777777777777778,-1.6766666666666667,0.35,2.0,9.93,11.698639872000001
1671151578.4414945,0,-5.44775390625,196.450439453125,-436.43408203125,1,332.5926513671875,119.57470703125,-614.4130859375,2,372.74267578125,119.026123046875,-577.046875,3,193.841796875,196.78369140625,-236.85595703125,-7.096354190369836,-3.520454338638736,-80.0,10.0,0.057777777777777775,0.04777777777777778,-1.6766666666666667,0.35,2.0,9.93,11.698639872000001
1671151578.4516788,0,-2.602294921875,196.410400390625,-440.68310546875,1,338.7476806640625,119.25537109375,-612.96826171875,2,377.4619140625,119.0439453125,-574.68359375,3,193.522705078125,196.84765625,-237.60009765625,-7.096354190369836,-3.520454338638736,-80.0,10.0,0.057777777777777775,0.04777777777777778,-1.6766666666666667,0.35,2.0,9.93,11.698639872000001
1671151578.4614573,0,0.60986328125,196.719970703125,-444.279541015625,1,344.1578369140625,119.099609375,-611.451416015625,2,381.92724609375,119.183837890625,-572.56298828125,3,193.3922119140625,196.77294921875,-238.3662109375,-7.096354190369836,-3.520454338638736,-80.0,10.0,0.057777777777777775,0.04777777777777778,-1.6766666666666667,0.35,2.0,9.93,11.698639872000001
1671151578.4715052,0,3.8670654296875,196.78271484375,-448.26953125,1,350.23046875,119.310546875,-609.532958984375,2,387.30126953125,119.254150390625,-570.203369140625,3,193.1097412109375,196.84375,-239.183837890625,-7.096354190369836,-3.520454338638736,-80.0,10.0,0.057777777777777775,0.04777777777777778,-1.6766666666666667,0.35,2.0,9.93,11.698639872000001
1671151578.481409,0,6.570068359375,196.62841796875,-451.8359375,1,355.7462158203125,119.07666015625,-607.9951171875,2,392.78369140625,118.95556640625,-568.09326171875,3,192.945556640625,196.915283203125,-239.984375,-7.096354190369836,-3.520454338638736,-80.0,10.0,0.057777777777777775,0.04777777777777778,-1.6766666666666667,0.35,2.0,9.93,11.698639872000001
1671151578.491423,0,10.13623046875,197.237548828125,-455.57861328125,1,362.0294189453125,119.50927734375,-606.41796875,2,397.6396484375,119.42333984375,-565.77294921875,3,192.884521484375,197.0029296875,-240.752197265625,-7.4377565798088,-3.492971398325653,-80.0,10.0,0.03,-0.0022222222222222222,-1.6744444444444444,-0.96,1.69,10.38,11.675585120000001
1671151578.5014162,0,13.652587890625,197.242431640625,-459.323486328125,1,368.188232421875,119.928466796875,-604.51513671875,2,402.755126953125,120.1865234375,-563.36083984375,3,192.797119140625,196.988525390625,-241.49609375,-7.4377565798088,-3.492971398325653,-80.0,10.0,0.03,-0.0022222222222222222,-1.6744444444444444,-0.96,1.69,10.38,11.675585120000001
1671151578.5114324,0,16.6524658203125,196.9501953125,-462.8291015625,1,373.4334716796875,120.10400390625,-602.40869140625,2,407.4072265625,121.11279296875,-561.18798828125,3,192.4283447265625,197.08251953125,-242.1494140625,-7.4377565798088,-3.492971398325653,-80.0,10.0,0.03,-0.0022222222222222222,-1.6744444444444444,-0.96,1.69,10.38,11.675585120000001
1671151578.521427,0,20.4940185546875,197.58935546875,-466.379638671875,1,379.1376953125,120.02392578125,-600.095458984375,2,412.748291015625,121.8369140625,-558.78564453125,3,192.1356201171875,196.97119140625,-242.8349609375,-7.4377565798088,-3.492971398325653,-80.0,10.0,0.03,-0.0022222222222222222,-1.6744444444444444,-0.96,1.69,10.38,11.675585120000001
1671151578.5313182,0,23.6461181640625,197.764892578125,-469.88623046875,1,384.053466796875,119.724609375,-598.15576171875,2,418.3529052734375,122.67529296875,-556.73095703125,3,192.0133056640625,196.956298828125,-243.553466796875,-7.727886258611314,-3.4742177688973537,-80.0,10.0,0.06222222222222222,-0.011111111111111112,-1.6777777777777778,0.43,1.55,9.93,11.6920528
1671151578.541378,0,27.440185546875,197.679931640625,-473.433349609375,1,389.50927734375,119.613525390625,-595.56640625,2,423.6046142578125,123.163330078125,-553.59912109375,3,191.939208984375,196.906005859375,-244.3017578125,-7.727886258611314,-3.4742177688973537,-80.0,10.0,0.06222222222222222,-0.011111111111111112,-1.6777777777777778,0.43,1.55,9.93,11.6920528
1671151578.551385,0,30.5272216796875,197.460693359375,-476.73681640625,1,394.448486328125,119.66357421875,-593.202880859375,2,428.11767578125,122.567138671875,-550.368408203125,3,191.6280517578125,196.94140625,-245.086669921875,-7.727886258611314,-3.4742177688973537,-80.0,10.0,0.06222222222222222,-0.011111111111111112,-1.6777777777777778,0.43,1.55,9.93,11.6920528
1671151578.561523,0,33.999755859375,197.591064453125,-480.4931640625,1,400.0762939453125,119.769775390625,-590.7607421875,2,433.0338134765625,122.762451171875,-547.145751953125,3,191.6456298828125,197.05078125,-245.96435546875,-7.727886258611314,-3.4742177688973537,-80.0,10.0,0.06222222222222222,-0.011111111111111112,-1.6777777777777778,0.43,1.55,9.93,11.6920528
1671151578.5713618,0,38.121337890625,197.4267578125,-483.8876953125,1,405.888671875,120.716064453125,-588.33056640625,2,437.939208984375,122.5556640625,-544.010498046875,3,191.601806640625,197.114501953125,-246.694091796875,-7.727886258611314,-3.4742177688973537,-80.0,10.0,0.06222222222222222,-0.011111111111111112,-1.6777777777777778,0.43,1.55,9.93,11.6920528
1671151578.581409,0,41.0618896484375,197.3173828125,-486.982666015625,1,410.3392333984375,121.113525390625,-585.708984375,2,442.0032958984375,121.2275390625,-540.0302734375,3,191.674560546875,197.0478515625,-247.454345703125,-7.727886258611314,-3.4742177688973537,-80.0,10.0,0.06222222222222222,-0.011111111111111112,-1.6777777777777778,0.43,1.55,9.93,11.6920528
1671151578.591395,0,44.8961181640625,197.308837890625,-490.101806640625,1,415.7205810546875,121.91455078125,-582.990234375,2,446.55615234375,120.3955078125,-535.522216796875,3,191.5120849609375,197.053955078125,-248.112060546875,-8.06103896963169,-3.452106712205676,-80.0,10.0,0.03222222222222222,0.016666666666666666,-1.6666666666666667,-1.64,2.14,11.97,11.678878656
1671151578.6013825,0,48.8948974609375,197.432861328125,-493.260009765625,1,420.8079833984375,121.34033203125,-579.56787109375,2,451.688720703125,118.618896484375,-530.5341796875,3,191.549072265625,196.903564453125,-248.755615234375,-8.06103896963169,-3.452106712205676,-80.0,10.0,0.03222222222222222,0.016666666666666666,-1.6666666666666667,-1.64,2.14,11.97,11.678878656
1671151578.6114373,0,52.4246826171875,197.3203125,-496.310302734375,1,425.4013671875,120.729736328125,-576.690673828125,2,455.891357421875,118.301025390625,-527.052001953125,3,191.3643798828125,196.995849609375,-249.445068359375,-8.06103896963169,-3.452106712205676,-80.0,10.0,0.03222222222222222,0.016666666666666666,-1.6666666666666667,-1.64,2.14,11.97,11.678878656
1671151578.6213975,0,56.586669921875,197.731689453125,-499.44482421875,1,430.8359375,120.624755859375,-573.452880859375,2,459.834716796875,118.3583984375,-523.74755859375,3,191.37060546875,197.052978515625,-250.189697265625,-8.06103896963169,-3.452106712205676,-80.0,10.0,0.03222222222222222,0.016666666666666666,-1.6666666666666667,-1.64,2.14,11.97,11.678878656
1671151578.6313956,0,60.4429931640625,197.8427734375,-502.24853515625,1,435.4554443359375,120.343017578125,-570.3720703125,2,463.27734375,118.435302734375,-520.7080078125,3,191.511962890625,197.167724609375,-250.98779296875,-8.06103896963169,-3.452106712205676,-80.0,10.0,0.03222222222222222,0.016666666666666666,-1.6666666666666667,-1.64,2.14,11.97,11.678878656
1671151578.6413956,0,64.904296875,198.101318359375,-505.296142578125,1,440.3304443359375,120.0654296875,-566.7626953125,2,467.01025390625,118.826904296875,-517.12939453125,3,191.451416015625,197.2099609375,-251.802978515625,-8.06103896963169,-3.452106712205676,-80.0,10.0,0.03222222222222222,0.016666666666666666,-1.6666666666666667,-1.64,2.14,11.97,11.678878656
1671151578.651422,0,68.80810546875,197.960205078125,-508.236083984375,1,445.7188720703125,120.332275390625,-563.295654296875,2,470.77392578125,119.29638671875,-513.467529296875,3,191.2940673828125,197.256103515625,-252.696044921875,-8.383447913409256,-3.428748611101886,-95.1,-27.2,0.013333333333333334,-0.0044444444444444444,-1.6933333333333334,-0.65,1.93,8.59,11.685465728
1671151578.6614683,0,72.504150390625,197.81494140625,-510.794921875,1,450.0435791015625,120.18505859375,-559.893798828125,2,474.3507080078125,119.523681640625,-510.01171875,3,191.4072265625,197.3251953125,-253.49755859375,-8.383447913409256,-3.428748611101886,-95.1,-27.2,0.013333333333333334,-0.0044444444444444444,-1.6933333333333334,-0.65,1.93,8.59,11.685465728
1671151578.6714334,0,76.61279296875,197.3876953125,-513.63134765625,1,456.63671875,119.584716796875,-555.57861328125,2,478.248046875,120.14404296875,-506.1806640625,3,191.189697265625,197.229736328125,-254.1240234375,-8.383447913409256,-3.428748611101886,-95.1,-27.2,0.013333333333333334,-0.0044444444444444444,-1.6933333333333334,-0.65,1.93,8.59,11.685465728
1671151578.6815429,0,80.5423583984375,197.391357421875,-516.03466796875,1,461.83349609375,119.701171875,-552.240478515625,2,482.468994140625,120.475830078125,-502.82421875,3,191.171630859375,196.888916015625,-254.617919921875,-8.383447913409256,-3.428748611101886,-95.1,-27.2,0.013333333333333334,-0.0044444444444444444,-1.6933333333333334,-0.65,1.93,8.59,11.685465728
1671151578.69143,0,85.2728271484375,197.56884765625,-518.718994140625,1,466.898681640625,120.29736328125,-548.672607421875,2,486.9647216796875,120.724853515625,-498.65185546875,3,191.574951171875,196.99169921875,-255.49755859375,-8.383447913409256,-3.428748611101886,-95.1,-27.2,0.013333333333333334,-0.0044444444444444444,-1.6933333333333334,-0.65,1.93,8.59,11.685465728
1671151578.7013602,0,89.7412109375,197.484130859375,-521.219482421875,1,472.2816162109375,120.49169921875,-545.499267578125,2,490.9144287109375,121.44677734375,-495.46875,3,192.205078125,197.02294921875,-256.41943359375,-8.383447913409256,-3.428748611101886,-95.1,-27.2,0.013333333333333334,-0.0044444444444444444,-1.6933333333333334,-0.65,1.93,8.59,11.685465728
1671151578.7113838,0,94.97998046875,197.446533203125,-524.095458984375,1,477.0089111328125,121.099609375,-542.27783203125,2,495.332275390625,121.73291015625,-491.95166015625,3,193.21435546875,197.015869140625,-257.68408203125,-8.73458684191202,-3.4125370337444303,-100.0,-52.7,0.04888888888888889,0.0033333333333333335,-1.7133333333333334,2.16,1.97,12.82,11.665704512
1671151578.7213864,0,100.5706787109375,197.686279296875,-526.760498046875,1,482.3060302734375,121.19140625,-539.283935546875,2,499.60400390625,121.53173828125,-488.76318359375,3,194.457763671875,197.162109375,-259.029296875,-8.73458684191202,-3.4125370337444303,-100.0,-52.7,0.04888888888888889,0.0033333333333333335,-1.7133333333333334,2.16,1.97,12.82,11.665704512
1671151578.7313552,0,105.6793212890625,197.619384765625,-529.22509765625,1,487.5443115234375,121.51611328125,-536.80615234375,2,504.07568359375,121.57373046875,-486.03515625,3,196.081787109375,197.096923828125,-260.337646484375,-8.73458684191202,-3.4125370337444303,-100.0,-52.7,0.04888888888888889,0.0033333333333333335,-1.7133333333333334,2.16,1.97,12.82,11.665704512
1671151578.7413874,0,111.2081298828125,198.00439453125,-531.970703125,1,493.669189453125,121.9921875,-534.455078125,2,509.0020751953125,121.02294921875,-482.849853515625,3,198.1402587890625,197.096435546875,-261.823974609375,-8.73458684191202,-3.4125370337444303,-100.0,-52.7,0.04888888888888889,0.0033333333333333335,-1.7133333333333334,2.16,1.97,12.82,11.665704512
1671151578.7513587,0,116.672607421875,198.6181640625,-534.304931640625,1,499.240966796875,121.715087890625,-531.8388671875,2,513.867919921875,120.590087890625,-480.221923828125,3,199.9183349609375,197.256103515625,-263.128173828125,-9.109563503984766,-3.487695441197487,-100.0,-65.8,0.016666666666666666,0.11666666666666667,-1.7033333333333334,-4.41,3.09,8.22,11.629475616
1671151578.7614846,0,123.1083984375,198.613037109375,-537.149169921875,1,505.5980224609375,122.51953125,-529.841552734375,2,519.2952880859375,120.2578125,-477.85595703125,3,202.512451171875,197.39697265625,-264.703857421875,-9.109563503984766,-3.487695441197487,-100.0,-65.8,0.016666666666666666,0.11666666666666667,-1.7033333333333334,-4.41,3.09,8.22,11.629475616
1671151578.7713616,0,129.492431640625,198.751220703125,-539.584228515625,1,511.6689453125,122.089111328125,-527.591064453125,2,527.0546875,122.186279296875,-478.29638671875,3,205.3570556640625,197.597412109375,-266.26904296875,-9.109563503984766,-3.487695441197487,-100.0,-65.8,0.016666666666666666,0.11666666666666667,-1.7033333333333334,-4.41,3.09,8.22,11.629475616
1671151578.7813516,0,135.235107421875,198.728515625,-541.6201171875,1,517.607666015625,122.79443359375,-526.475341796875,2,531.822021484375,121.64013671875,-476.30029296875,3,208.3353271484375,197.986572265625,-267.7275390625,-9.109563503984766,-3.487695441197487,-100.0,-65.8,0.016666666666666666,0.11666666666666667,-1.7033333333333334,-4.41,3.09,8.22,11.629475616
1671151578.791376,0,141.846923828125,198.9345703125,-543.880615234375,1,523.6712646484375,122.177734375,-524.65380859375,2,535.666015625,119.7734375,-472.40185546875,3,212.2452392578125,197.973876953125,-269.237060546875,-9.394513152152353,-3.6011764826996773,-100.0,-74.4,0.028888888888888888,-0.06555555555555556,-1.4366666666666668,-3.53,2.8,12.71,11.626182080000001
1671151578.8013506,0,147.802490234375,198.923095703125,-545.734130859375,1,529.276123046875,121.5419921875,-523.413330078125,2,541.5267333984375,119.8447265625,-471.157470703125,3,216.330322265625,198.04150390625,-270.37939453125,-9.394513152152353,-3.6011764826996773,-100.0,-74.4,0.028888888888888888,-0.06555555555555556,-1.4366666666666668,-3.53,2.8,12.71,11.626182080000001
1671151578.8113499,0,154.322021484375,198.730224609375,-547.521728515625,1,535.620361328125,120.942626953125,-522.32177734375,2,547.5565185546875,119.636962890625,-470.1455078125,3,220.95361328125,198.06396484375,-271.864501953125,-9.394513152152353,-3.6011764826996773,-100.0,-74.4,0.028888888888888888,-0.06555555555555556,-1.4366666666666668,-3.53,2.8,12.71,11.626182080000001
1671151578.8214045,0,161.226318359375,198.969970703125,-549.38427734375,1,542.0535888671875,120.711181640625,-521.6142578125,2,554.048095703125,119.365234375,-469.253173828125,3,226.05078125,198.26123046875,-273.4619140625,-9.394513152152353,-3.6011764826996773,-100.0,-74.4,0.028888888888888888,-0.06555555555555556,-1.4366666666666668,-3.53,2.8,12.71,11.626182080000001
1671151578.8315372,0,167.950439453125,198.587158203125,-551.167724609375,1,548.1080322265625,120.55078125,-521.120849609375,2,560.13232421875,119.436279296875,-468.70947265625,3,231.2540283203125,197.964111328125,-274.77587890625,-9.394513152152353,-3.6011764826996773,-100.0,-74.4,0.028888888888888888,-0.06555555555555556,-1.4366666666666668,-3.53,2.8,12.71,11.626182080000001
1671151578.841407,0,175.6466064453125,199.525634765625,-553.275390625,1,554.53515625,120.8984375,-520.6845703125,2,566.1492919921875,119.955322265625,-468.12841796875,3,236.93994140625,197.798583984375,-276.449462890625,-9.818796031750145,-3.841424385017712,-100.0,-75.1,0.06777777777777778,-0.005555555555555556,-0.9033333333333333,-5.08,2.64,13.07,11.642649760000001
1671151578.8513932,0,182.9287109375,199.82080078125,-555.1669921875,1,561.425048828125,120.47119140625,-520.57373046875,2,572.363525390625,119.742919921875,-467.77099609375,3,242.7744140625,197.3876953125,-277.991455078125,-9.818796031750145,-3.841424385017712,-100.0,-75.1,0.06777777777777778,-0.005555555555555556,-0.9033333333333333,-5.08,2.64,13.07,11.642649760000001
1671151578.8615088,0,189.24609375,199.81396484375,-556.695556640625,1,567.3433837890625,120.1064453125,-519.9921875,2,578.4732666015625,119.91259765625,-467.27197265625,3,247.7962646484375,197.523681640625,-279.2880859375,-9.818796031750145,-3.841424385017712,-100.0,-75.1,0.06777777777777778,-0.005555555555555556,-0.9033333333333333,-5.08,2.64,13.07,11.642649760000001
1671151578.8714082,0,196.0782470703125,199.777587890625,-558.4931640625,1,574.3240966796875,120.049560546875,-519.5380859375,2,585.1778564453125,120.21533203125,-466.95947265625,3,253.1026611328125,197.479248046875,-280.646728515625,-9.818796031750145,-3.841424385017712,-100.0,-75.1,0.06777777777777778,-0.005555555555555556,-0.9033333333333333,-5.08,2.64,13.07,11.642649760000001
1671151578.8813958,0,202.312744140625,199.794189453125,-560.17236328125,1,580.09912109375,120.085693359375,-519.33544921875,2,590.60205078125,120.150146484375,-466.6142578125,3,258.3450927734375,197.595458984375,-282.0009765625,-10.1928134288905,-4.081000801883071,-100.0,-75.1,0.0022222222222222222,-0.06666666666666667,-0.6155555555555555,-0.39,2.81,10.03,11.659117440000001
1671151578.8913996,0,209.05224609375,199.528564453125,-562.078369140625,1,586.9432373046875,120.1328125,-518.89453125,2,597.0460205078125,119.990966796875,-465.972900390625,3,263.673583984375,197.568359375,-283.540771484375,-10.1928134288905,-4.081000801883071,-100.0,-75.1,0.0022222222222222222,-0.06666666666666667,-0.6155555555555555,-0.39,2.81,10.03,11.659117440000001
1671151578.9013932,0,215.8587646484375,199.509765625,-563.74462890625,1,593.590576171875,120.201171875,-518.379638671875,2,603.2086181640625,119.687255859375,-465.511962890625,3,268.9844970703125,197.53466796875,-284.84326171875,-10.1928134288905,-4.081000801883071,-100.0,-75.1,0.0022222222222222222,-0.06666666666666667,-0.6155555555555555,-0.39,2.81,10.03,11.659117440000001
1671151578.911361,0,221.8380126953125,199.248046875,-565.184814453125,1,599.8153076171875,120.11181640625,-517.81689453125,2,608.9998779296875,119.692626953125,-464.976806640625,3,273.7476806640625,197.483154296875,-286.036865234375,-10.1928134288905,-4.081000801883071,-100.0,-75.1,0.0022222222222222222,-0.06666666666666667,-0.6155555555555555,-0.39,2.81,10.03,11.659117440000001
1671151578.9213922,0,228.8914794921875,199.34228515625,-566.8212890625,1,606.127685546875,120.208984375,-517.488525390625,2,615.8326416015625,119.5595703125,-464.3203125,3,278.8624267578125,197.550537109375,-287.6005859375,-10.1928134288905,-4.081000801883071,-100.0,-75.1,0.0022222222222222222,-0.06666666666666667,-0.6155555555555555,-0.39,2.81,10.03,11.659117440000001
1671151578.9313927,0,234.835205078125,198.920166015625,-568.322998046875,1,612.3231201171875,120.10302734375,-517.1357421875,2,621.3834228515625,120.285888671875,-463.628173828125,3,283.5654296875,197.465087890625,-289.172119140625,-10.572346599392118,-4.352328888010666,-99.2,-69.5,0.052222222222222225,0.07222222222222222,-0.5711111111111111,1.62,2.81,8.34,11.675585120000001
1671151578.941384,0,241.943115234375,198.80615234375,-570.0947265625,1,618.969482421875,119.90380859375,-516.44580078125,2,627.6357421875,120.40673828125,-463.154296875,3,289.240234375,197.423095703125,-290.340576171875,-10.572346599392118,-4.352328888010666,-99.2,-69.5,0.052222222222222225,0.07222222222222222,-0.5711111111111111,1.62,2.81,8.34,11.675585120000001
1671151578.951401,0,248.8375244140625,198.712646484375,-571.63037109375,1,625.2071533203125,119.99462890625,-515.986328125,2,633.6055908203125,120.30908203125,-462.569091796875,3,294.4564208984375,197.661865234375,-291.64306640625,-10.572346599392118,-4.352328888010666,-99.2,-69.5,0.052222222222222225,0.07222222222222222,-0.5711111111111111,1.62,2.81,8.34,11.675585120000001
1671151578.9615352,0,255.09765625,198.6435546875,-573.073486328125,1,631.28466796875,120.19384765625,-515.46533203125,2,639.79541015625,120.51806640625,-461.802490234375,3,299.2757568359375,197.51220703125,-292.748779296875,-10.572346599392118,-4.352328888010666,-99.2,-69.5,0.052222222222222225,0.07222222222222222,-0.5711111111111111,1.62,2.81,8.34,11.675585120000001
1671151578.9714067,0,261.977783203125,198.593994140625,-574.558349609375,1,637.7928466796875,120.141357421875,-514.707763671875,2,646.6085205078125,120.28515625,-461.143310546875,3,304.63232421875,197.62646484375,-293.97021484375,-10.572346599392118,-4.352328888010666,-99.2,-69.5,0.052222222222222225,0.07222222222222222,-0.5711111111111111,1.62,2.81,8.34,11.675585120000001
1671151578.9813929,0,268.342041015625,198.55859375,-575.75390625,1,643.9630126953125,120.091552734375,-513.9892578125,2,651.7796630859375,120.3759765625,-460.435546875,3,309.5108642578125,197.5869140625,-295.0703125,-10.572346599392118,-4.352328888010666,-99.2,-69.5,0.052222222222222225,0.07222222222222222,-0.5711111111111111,1.62,2.81,8.34,11.675585120000001
1671151578.9915078,0,275.1566162109375,198.6943359375,-576.9931640625,1,650.916748046875,119.96240234375,-512.965576171875,2,658.179931640625,120.211181640625,-459.6923828125,3,315.3114013671875,197.7109375,-295.866455078125,-10.974470459051611,-4.654593268207961,-100.0,-60.5,0.0022222222222222222,0.0077777777777777776,-0.56,-0.48,2.63,10.54,11.678878656
1671151579.0014017,0,282.07421875,198.6416015625,-578.34326171875,1,658.10498046875,119.893798828125,-511.788818359375,2,664.7222900390625,119.952392578125,-458.8291015625,3,320.824462890625,197.75244140625,-296.809814453125,-10.974470459051611,-4.654593268207961,-100.0,-60.5,0.0022222222222222222,0.0077777777777777776,-0.56,-0.48,2.63,10.54,11.678878656
1671151579.01136,0,288.47412109375,198.62060546875,-579.44384765625,1,664.057861328125,119.705810546875,-510.8193359375,2,670.2340087890625,119.80078125,-457.9755859375,3,325.763671875,197.866943359375,-297.73388671875,-10.974470459051611,-4.654593268207961,-100.0,-60.5,0.0022222222222222222,0.0077777777777777776,-0.56,-0.48,2.63,10.54,11.678878656
1671151579.0213847,0,295.3331298828125,198.40673828125,-580.9150390625,1,670.546630859375,119.71728515625,-509.6318359375,2,676.387451171875,119.78955078125,-456.731201171875,3,330.838623046875,197.79931640625,-298.867919921875,-10.974470459051611,-4.654593268207961,-100.0,-60.5,0.0022222222222222222,0.0077777777777777776,-0.56,-0.48,2.63,10.54,11.678878656
1671151579.0313969,0,301.7178955078125,198.75390625,-582.0048828125,1,676.470947265625,119.712158203125,-508.254638671875,2,682.1776123046875,120.117919921875,-455.245849609375,3,335.42724609375,197.905517578125,-299.4853515625,-10.974470459051611,-4.654593268207961,-100.0,-60.5,0.0022222222222222222,0.0077777777777777776,-0.56,-0.48,2.63,10.54,11.678878656
1671151579.0413861,0,308.69140625,198.51025390625,-583.193359375,1,682.9000244140625,119.776123046875,-506.66162109375,2,688.6212158203125,120.35107421875,-453.3603515625,3,340.6087646484375,197.46923828125,-300.4189453125,-11.37112650859646,-4.927120435501049,-100.0,-60.2,0.2811111111111111,-0.07555555555555556,-0.5533333333333333,-0.93,1.42,9.16,11.695346336
1671151579.0513968,0,315.953125,198.955078125,-584.06884765625,1,689.265625,119.83984375,-504.949951171875,2,694.74560546875,120.5234375,-451.357666015625,3,344.90625,197.6904296875,-301.361572265625,-11.37112650859646,-4.927120435501049,-100.0,-60.2,0.2811111111111111,-0.07555555555555556,-0.5533333333333333,-0.93,1.42,9.16,11.695346336
1671151579.0614676,0,322.1220703125,199.171142578125,-584.955810546875,1,694.93408203125,119.734375,-503.02490234375,2,700.646728515625,120.203369140625,-449.62939453125,3,349.30615234375,197.708740234375,-302.263916015625,-11.37112650859646,-4.927120435501049,-100.0,-60.2,0.2811111111111111,-0.07555555555555556,-0.5533333333333333,-0.93,1.42,9.16,11.695346336
1671151579.0713956,0,328.968505859375,198.98291015625,-586.0,1,701.4544677734375,119.619140625,-501.225830078125,2,706.143798828125,120.644287109375,-447.65234375,3,354.0235595703125,197.741943359375,-303.13037109375,-11.37112650859646,-4.927120435501049,-100.0,-60.2,0.2811111111111111,-0.07555555555555556,-0.5533333333333333,-0.93,1.42,9.16,11.695346336
1671151579.0813935,0,334.962158203125,198.86767578125,-586.963623046875,1,707.2099609375,119.58154296875,-499.50390625,2,711.358154296875,120.994384765625,-445.919921875,3,358.5013427734375,197.61962890625,-303.810791015625,-11.776176126299754,-5.194467572159208,-100.0,-59.4,0.27555555555555555,0.07333333333333333,-0.7477777777777778,-0.59,0.54,9.28,11.688759264
1671151579.0915065,0,341.7523193359375,198.690185546875,-587.848876953125,1,713.0,119.733154296875,-497.519775390625,2,717.0596923828125,120.864990234375,-443.773681640625,3,363.2222900390625,197.589599609375,-304.571044921875,-11.776176126299754,-5.194467572159208,-100.0,-59.4,0.27555555555555555,0.07333333333333333,-0.7477777777777778,-0.59,0.54,9.28,11.688759264
1671151579.1014097,0,348.6038818359375,198.564453125,-588.654541015625,1,719.1978759765625,119.7646484375,-495.537109375,2,722.9068603515625,121.191650390625,-441.862548828125,3,367.819091796875,197.728271484375,-305.260986328125,-11.776176126299754,-5.194467572159208,-100.0,-59.4,0.27555555555555555,0.07333333333333333,-0.7477777777777778,-0.59,0.54,9.28,11.688759264
1671151579.1113863,0,354.63134765625,198.620361328125,-589.48828125,1,724.671142578125,119.715576171875,-493.674560546875,2,728.0289306640625,121.0205078125,-439.90478515625,3,371.762451171875,197.75,-306.021728515625,-11.776176126299754,-5.194467572159208,-100.0,-59.4,0.27555555555555555,0.07333333333333333,-0.7477777777777778,-0.59,0.54,9.28,11.688759264
1671151579.1213655,0,361.5391845703125,198.33056640625,-590.419189453125,1,730.9110107421875,119.799560546875,-491.541259765625,2,733.8753662109375,121.1884765625,-437.717529296875,3,376.4422607421875,197.735107421875,-306.699462890625,-11.776176126299754,-5.194467572159208,-100.0,-59.4,0.27555555555555555,0.07333333333333333,-0.7477777777777778,-0.59,0.54,9.28,11.688759264
1671151579.1313152,0,367.7392578125,198.440673828125,-591.025390625,1,736.368408203125,119.780517578125,-489.47998046875,2,738.997314453125,121.016845703125,-435.5595703125,3,380.742919921875,197.66748046875,-307.267578125,-12.18261667815502,-5.420710206464293,-99.6,-58.7,0.27111111111111114,-0.02,-0.7533333333333333,-2.43,3.04,9.42,11.655823904
1671151579.1413758,0,374.611572265625,198.35009765625,-591.63916015625,1,742.49267578125,119.7646484375,-487.052734375,2,744.62890625,121.105712890625,-433.104736328125,3,385.37890625,197.910400390625,-307.706787109375,-12.18261667815502,-5.420710206464293,-99.6,-58.7,0.27111111111111114,-0.02,-0.7533333333333333,-2.43,3.04,9.42,11.655823904
1671151579.1513925,0,380.9150390625,198.728759765625,-592.124755859375,1,746.9615478515625,114.401123046875,-481.7001953125,2,749.6361083984375,121.159423828125,-431.115234375,3,389.61279296875,197.74560546875,-308.08251953125,-12.18261667815502,-5.420710206464293,-99.6,-58.7,0.27111111111111114,-0.02,-0.7533333333333333,-2.43,3.04,9.42,11.655823904
1671151579.1614244,0,387.737060546875,198.574951171875,-592.6640625,1,754.523193359375,120.242919921875,-482.520263671875,2,755.1988525390625,121.1484375,-428.66162109375,3,394.172119140625,197.716552734375,-308.475830078125,-12.18261667815502,-5.420710206464293,-99.6,-58.7,0.27111111111111114,-0.02,-0.7533333333333333,-2.43,3.04,9.42,11.655823904
1671151579.1714346,0,394.6097412109375,198.353759765625,-593.146484375,1,760.2921142578125,120.004150390625,-479.955322265625,2,760.79443359375,121.1240234375,-426.325439453125,3,398.8826904296875,197.40234375,-309.03662109375,-12.18261667815502,-5.420710206464293,-99.6,-58.7,0.27111111111111114,-0.02,-0.7533333333333333,-2.43,3.04,9.42,11.655823904
1671151579.1814585,0,401.121826171875,198.7216796875,-593.560302734375,1,765.3404541015625,120.10888671875,-477.781005859375,2,765.5211181640625,121.074951171875,-424.140869140625,3,403.080810546875,197.395263671875,-309.71728515625,-12.18261667815502,-5.420710206464293,-99.6,-58.7,0.27111111111111114,-0.02,-0.7533333333333333,-2.43,3.04,9.42,11.655823904
1671151579.1914325,0,408.378662109375,199.267578125,-593.915283203125,1,771.3944091796875,120.099365234375,-475.27685546875,2,771.19287109375,121.11865234375,-421.6748046875,3,407.6856689453125,197.5244140625,-310.13525390625,-12.592270767533805,-5.662492932674159,-99.6,-58.7,0.008888888888888889,-0.008888888888888889,-0.8188888888888889,-3.37,1.76,9.8,11.655823904
1671151579.2014573,0,414.468994140625,199.144287109375,-594.283935546875,1,776.65625,120.217529296875,-472.90771484375,2,776.197265625,121.21044921875,-419.2724609375,3,411.4296875,197.303955078125,-310.426025390625,-12.592270767533805,-5.662492932674159,-99.6,-58.7,0.008888888888888889,-0.008888888888888889,-0.8188888888888889,-3.37,1.76,9.8,11.655823904
1671151579.21151,0,421.3016357421875,199.09765625,-594.65625,1,782.5462646484375,120.35986328125,-470.260986328125,2,781.5284423828125,121.46044921875,-416.753173828125,3,416.0146484375,197.142822265625,-310.765869140625,-12.592270767533805,-5.662492932674159,-99.6,-58.7,0.008888888888888889,-0.008888888888888889,-0.8188888888888889,-3.37,1.76,9.8,11.655823904
1671151579.2214727,0,428.0567626953125,199.12548828125,-594.66845703125,1,788.69970703125,119.992919921875,-467.469482421875,2,786.906005859375,121.312255859375,-414.03271484375,3,420.5986328125,197.0205078125,-310.934326171875,-12.592270767533805,-5.662492932674159,-99.6,-58.7,0.008888888888888889,-0.008888888888888889,-0.8188888888888889,-3.37,1.76,9.8,11.655823904
1671151579.2314887,0,434.15576171875,199.04931640625,-594.865234375,1,793.888427734375,120.572509765625,-464.76611328125,2,791.8162841796875,121.3369140625,-411.450439453125,3,424.7901611328125,197.0615234375,-311.1728515625,-12.982163999305277,-5.886912963607695,-99.6,-58.7,-0.21777777777777776,-0.06222222222222222,-0.8177777777777778,-1.01,3.32,10.45,11.668998048
1671151579.241407,0,441.05615234375,199.004638671875,-595.1083984375,1,799.729248046875,120.55712890625,-461.809814453125,2,798.7535400390625,125.717529296875,-410.818603515625,3,429.409912109375,197.1875,-311.4814453125,-12.982163999305277,-5.886912963607695,-99.6,-58.7,-0.21777777777777776,-0.06222222222222222,-0.8177777777777778,-1.01,3.32,10.45,11.668998048
1671151579.251392,0,447.909912109375,199.1396484375,-595.360107421875,1,805.396484375,120.387451171875,-458.85791015625,2,802.275390625,121.298583984375,-405.872314453125,3,434.010986328125,197.12109375,-311.798095703125,-12.982163999305277,-5.886912963607695,-99.6,-58.7,-0.21777777777777776,-0.06222222222222222,-0.8177777777777778,-1.01,3.32,10.45,11.668998048
1671151579.2614918,0,454.135498046875,198.958984375,-595.340576171875,1,810.739013671875,120.529296875,-456.09326171875,2,807.207763671875,121.307373046875,-402.995361328125,3,438.081787109375,197.4169921875,-311.791259765625,-12.982163999305277,-5.886912963607695,-99.6,-58.7,-0.21777777777777776,-0.06222222222222222,-0.8177777777777778,-1.01,3.32,10.45,11.668998048
1671151579.2714696,0,461.0811767578125,199.176513671875,-595.212890625,1,816.4522705078125,120.548095703125,-453.190673828125,2,812.455322265625,120.952392578125,-399.91455078125,3,442.888916015625,197.7314453125,-311.707763671875,-12.982163999305277,-5.886912963607695,-99.6,-58.7,-0.21777777777777776,-0.06222222222222222,-0.8177777777777778,-1.01,3.32,10.45,11.668998048
1671151579.2814949,0,467.2213134765625,199.1123046875,-595.176025390625,1,821.6434326171875,120.261474609375,-450.16552734375,2,817.3408203125,121.36962890625,-397.283935546875,3,447.1807861328125,197.879638671875,-311.640869140625,-13.374119650681397,-6.11943878321996,-99.6,-58.7,0.10555555555555556,0.0077777777777777776,-0.8622222222222222,2.15,2.53,4.91,11.685465728
1671151579.291503,0,474.1044921875,199.254150390625,-594.904052734375,1,827.3026123046875,120.397216796875,-447.197265625,2,822.5562744140625,121.042236328125,-394.142822265625,3,451.994140625,198.143798828125,-311.672119140625,-13.374119650681397,-6.11943878321996,-99.6,-58.7,0.10555555555555556,0.0077777777777777776,-0.8622222222222222,2.15,2.53,4.91,11.685465728
1671151579.3016388,0,480.9512939453125,199.435791015625,-594.7958984375,1,832.9879150390625,120.421875,-444.07421875,2,828.17529296875,121.0322265625,-391.30419921875,3,456.75537109375,198.106689453125,-311.637939453125,-13.374119650681397,-6.11943878321996,-99.6,-58.7,0.10555555555555556,0.0077777777777777776,-0.8622222222222222,2.15,2.53,4.91,11.685465728
1671151579.3114514,0,487.139404296875,199.334228515625,-594.52099609375,1,838.1171875,120.4697265625,-441.06005859375,2,832.3934326171875,120.842041015625,-388.339599609375,3,460.6014404296875,198.09228515625,-311.584716796875,-13.374119650681397,-6.11943878321996,-99.6,-58.7,0.10555555555555556,0.0077777777777777776,-0.8622222222222222,2.15,2.53,4.91,11.685465728
1671151579.3214192,0,493.9730224609375,199.4599609375,-594.064697265625,1,843.6331787109375,120.169677734375,-437.546630859375,2,837.5040283203125,120.856201171875,-385.205078125,3,465.0244140625,198.171630859375,-311.404052734375,-13.374119650681397,-6.11943878321996,-99.6,-58.7,0.10555555555555556,0.0077777777777777776,-0.8622222222222222,2.15,2.53,4.91,11.685465728
1671151579.3314345,0,500.3643798828125,199.506591796875,-593.70751953125,1,848.784423828125,120.35205078125,-434.7802734375,2,841.813232421875,120.752197265625,-382.235595703125,3,469.3275146484375,198.202392578125,-311.22998046875,-13.374119650681397,-6.11943878321996,-99.6,-58.7,0.10555555555555556,0.0077777777777777776,-0.8622222222222222,2.15,2.53,4.91,11.685465728
1671151579.341385,0,506.9256591796875,199.26318359375,-593.43115234375,1,854.261474609375,119.769287109375,-431.62158203125,2,846.8721923828125,120.34521484375,-378.85205078125,3,473.773193359375,197.8037109375,-311.406982421875,-13.791064153546374,-6.380310881584461,-99.6,-58.7,-0.021111111111111112,-0.04777777777777778,-0.8377777777777777,-1.31,2.89,15.02,11.659117440000001
1671151579.3514216,0,513.954833984375,199.547607421875,-593.021484375,1,859.6837158203125,119.993408203125,-428.25390625,2,851.9412841796875,120.335205078125,-375.53466796875,3,478.469482421875,197.9287109375,-311.385498046875,-13.791064153546374,-6.380310881584461,-99.6,-58.7,-0.021111111111111112,-0.04777777777777778,-0.8377777777777777,-1.31,2.89,15.02,11.659117440000001
1671151579.3614645,0,519.8060302734375,199.2373046875,-592.66064453125,1,864.571044921875,119.882568359375,-425.073486328125,2,856.3106689453125,120.1689453125,-372.48193359375,3,482.3355712890625,198.07275390625,-311.20166015625,-13.791064153546374,-6.380310881584461,-99.6,-58.7,-0.021111111111111112,-0.04777777777777778,-0.8377777777777777,-1.31,2.89,15.02,11.659117440000001
1671151579.3714538,0,526.478759765625,199.020751953125,-592.1826171875,1,870.3592529296875,120.08740234375,-421.7265625,2,861.9761962890625,120.03759765625,-369.064697265625,3,486.8485107421875,198.124267578125,-310.93798828125,-13.791064153546374,-6.380310881584461,-99.6,-58.7,-0.021111111111111112,-0.04777777777777778,-0.8377777777777777,-1.31,2.89,15.02,11.659117440000001
