Time,Marker0_ID,Marker0_x,Marker0_y,Marker0_z,Marker1_ID,Marker1_x,Marker1_y,Marker1_z,Marker2_ID,Marker2_x,Marker2_y,Marker2_z,Marker3_ID,Marker3_x,Marker3_y,Marker3_z,thetaR,thetaL,dutyR,dutyL,wx,wy,wz,ax,ay,az,Vbatt
1671151804.5320277,0,0,0,0,0,0,0,0,0,0,0,0,0,0,0,0,0,0,0,0,0,0,0,0,0,0,0
1671151804.5420892,0,-177.83935546875,195.290771484375,35.27294921875,1,-73.88861083984375,116.686279296875,-336.41162109375,2,-21.05035400390625,117.3671875,-338.083251953125,3,103.9173583984375,196.183837890625,24.498779296875,0,0,0,0,0,0,0,0,0,0,0
1671151804.5520737,0,-177.81304931640625,195.262451171875,35.25732421875,1,-73.9493408203125,116.760986328125,-336.435791015625,2,-21.1124267578125,117.368896484375,-338.05859375,3,103.9384765625,196.187255859375,24.49755859375,0,0,0,0,0,0,0,0,0,0,0
1671151804.5620627,0,-177.74310302734375,195.20556640625,35.229736328125,1,-73.95599365234375,116.779296875,-336.427490234375,2,-21.07110595703125,117.355224609375,-338.084228515625,3,103.9622802734375,196.20703125,24.533935546875,0,0,0,0,0,0,0,0,0,0,0
1671151804.5721874,0,-177.7886962890625,195.296630859375,35.2529296875,1,-73.9613037109375,116.76416015625,-336.416259765625,2,-20.967041015625,117.32177734375,-338.05810546875,3,103.9718017578125,196.211669921875,24.516357421875,0,0,0,0,0,0,0,0,0,0,0
1671151804.5820878,0,-177.758056640625,195.262939453125,35.280517578125,1,-73.90380859375,116.76513671875,-336.44140625,2,-21.0330810546875,117.3583984375,-338.07958984375,3,103.952880859375,196.221923828125,24.524169921875,0,0,0,0,0,0,0,0,0,0,0
1671151804.5920653,0,-177.76177978515625,195.30517578125,35.23974609375,1,-73.91339111328125,116.77294921875,-336.464599609375,2,-20.998291015625,117.33203125,-338.09130859375,3,103.9298095703125,196.19921875,24.52392578125,0,0,0,0,0,0,0,0,0,0,0
1671151804.60207,0,-177.83563232421875,195.253173828125,35.28125,1,-73.89483642578125,116.744873046875,-336.3935546875,2,-21.0589599609375,117.325439453125,-338.06591796875,3,103.9635009765625,196.1787109375,24.511962890625,0,0,0,0,0,0,0,0,0,0,0
1671151804.612037,0,-177.81658935546875,195.227783203125,35.2626953125,1,-73.9566650390625,116.734619140625,-336.439697265625,2,-21.02520751953125,117.3681640625,-338.08154296875,3,103.9732666015625,196.2412109375,24.53466796875,0.0,0.0,0.0,0.0,0.0,-0.0011111111111111111,-0.0,-0.18,1.85,9.69,11.672291584
1671151804.6220632,0,-177.78662109375,195.267578125,35.2841796875,1,-73.82037353515625,116.674560546875,-336.432861328125,2,-21.03131103515625,117.3310546875,-338.080078125,3,104.011474609375,196.19970703125,24.54296875,0.0,0.0,0.0,0.0,0.0,-0.0011111111111111111,-0.0,-0.18,1.85,9.69,11.672291584
1671151804.6320763,0,-177.83087158203125,195.22705078125,35.28173828125,1,-73.89227294921875,116.721923828125,-336.43896484375,2,-21.0272216796875,117.315673828125,-338.0576171875,3,104.01513671875,196.21435546875,24.527587890625,0.0,0.0,0.0,0.0,0.0,-0.0011111111111111111,-0.0,-0.18,1.85,9.69,11.672291584
1671151804.642081,0,-177.81573486328125,195.245849609375,35.2890625,1,-73.89813232421875,116.748291015625,-336.420166015625,2,-21.0162353515625,117.3330078125,-338.038330078125,3,103.9527587890625,196.144775390625,24.51318359375,0.0,0.0,0.0,0.0,0.0,-0.0011111111111111111,-0.0,-0.18,1.85,9.69,11.672291584
1671151804.6520286,0,-177.7742919921875,195.290771484375,35.2763671875,1,-73.9053955078125,116.72216796875,-336.408935546875,2,-21.08306884765625,117.29541015625,-338.0693359375,3,103.936767578125,196.14697265625,24.5048828125,0.0,0.0,0.0,0.0,0.0,-0.0011111111111111111,-0.0,-0.18,1.85,9.69,11.672291584
1671151804.662055,0,-177.7215576171875,195.20751953125,35.240478515625,1,-73.87030029296875,116.72412109375,-336.439697265625,2,-21.04791259765625,117.3505859375,-338.081787109375,3,103.944580078125,196.236083984375,24.546630859375,0.0,0.0,0.0,0.0,0.0,-0.0022222222222222222,-0.0,-0.19,1.85,9.72,11.668998048
1671151804.672054,0,-177.7762451171875,195.3388671875,35.2431640625,1,-73.9346923828125,116.7939453125,-336.46435546875,2,-21.0439453125,117.376708984375,-338.10791015625,3,103.973876953125,196.260498046875,24.5078125,0.0,0.0,0.0,0.0,0.0,-0.0022222222222222222,-0.0,-0.19,1.85,9.72,11.668998048
1671151804.682077,0,-177.98944091796875,195.06494140625,35.369873046875,1,-73.913818359375,116.76953125,-336.434814453125,2,-21.0352783203125,117.3505859375,-338.071533203125,3,104.0057373046875,196.179931640625,24.496337890625,0.0,0.0,0.0,0.0,0.0,-0.0022222222222222222,-0.0,-0.19,1.85,9.72,11.668998048
1671151804.69214,0,-177.75018310546875,195.317626953125,35.302490234375,1,-73.9112548828125,116.757568359375,-336.45556640625,2,-21.00823974609375,117.37646484375,-338.103759765625,3,103.96337890625,196.16015625,24.55322265625,0.0,0.0,0.0,0.0,0.0,-0.0022222222222222222,-0.0,-0.19,1.85,9.72,11.668998048
1671151804.702159,0,-177.74310302734375,195.354248046875,35.2294921875,1,-73.968994140625,116.822021484375,-336.403076171875,2,-21.04534912109375,117.289794921875,-338.05859375,3,103.919677734375,196.187255859375,24.498291015625,0.0,0.0,0.0,0.0,0.0,-0.0022222222222222222,-0.0,-0.19,1.85,9.72,11.668998048
1671151804.7121215,0,-177.71246337890625,195.249267578125,35.224853515625,1,-73.91424560546875,116.745849609375,-336.3818359375,2,-21.02398681640625,117.37060546875,-338.06005859375,3,103.947021484375,196.23291015625,24.49658203125,0.0,0.0,0.0,0.0,0.0,-0.0022222222222222222,-0.0,-0.19,1.85,9.72,11.668998048
1671151804.7221632,0,-177.86285400390625,195.228759765625,35.298583984375,1,-73.9063720703125,116.785400390625,-336.427001953125,2,-21.03228759765625,117.362060546875,-338.05712890625,3,103.956787109375,196.227783203125,24.516845703125,0.0,0.0,0.0,0.0,-0.0022222222222222222,-0.0022222222222222222,0.0011111111111111111,-0.18,1.84,9.68,11.675585120000001
1671151804.7320607,0,-177.80877685546875,195.1513671875,35.280029296875,1,-73.9681396484375,116.74267578125,-336.387451171875,2,-21.0457763671875,117.290771484375,-338.066162109375,3,103.9019775390625,196.251220703125,24.54833984375,0.0,0.0,0.0,0.0,-0.0022222222222222222,-0.0022222222222222222,0.0011111111111111111,-0.18,1.84,9.68,11.675585120000001
1671151804.7421134,0,-177.79693603515625,195.234619140625,35.29736328125,1,-73.84063720703125,116.707275390625,-336.4326171875,2,-21.0758056640625,117.349853515625,-338.06689453125,3,103.9205322265625,196.168701171875,24.50634765625,0.0,0.0,0.0,0.0,-0.0022222222222222222,-0.0022222222222222222,0.0011111111111111111,-0.18,1.84,9.68,11.675585120000001
1671151804.7520692,0,-177.853271484375,195.135009765625,35.3232421875,1,-73.8731689453125,116.758056640625,-336.43603515625,2,-21.08221435546875,117.345458984375,-338.0693359375,3,103.9290771484375,196.179443359375,24.488525390625,0.0,0.0,0.0,0.0,-0.0022222222222222222,-0.0022222222222222222,0.0011111111111111111,-0.18,1.84,9.68,11.675585120000001
1671151804.7620864,0,-177.80609130859375,195.205078125,35.2421875,1,-73.89544677734375,116.755615234375,-336.462158203125,2,-21.0665283203125,117.385498046875,-338.077880859375,3,103.9547119140625,196.2314453125,24.525634765625,0.0,0.0,0.0,0.0,-0.0022222222222222222,-0.0,-0.0011111111111111111,-0.18,1.82,9.69,11.682172192000001
1671151804.7720585,0,-177.8214111328125,195.342041015625,35.23779296875,1,-73.9029541015625,116.7431640625,-336.430908203125,2,-21.0396728515625,117.3662109375,-338.048583984375,3,104.0277099609375,196.22265625,24.5390625,0.0,0.0,0.0,0.0,-0.0022222222222222222,-0.0,-0.0011111111111111111,-0.18,1.82,9.69,11.682172192000001
1671151804.7821362,0,-177.88885498046875,195.222412109375,35.339111328125,1,-73.93194580078125,116.75439453125,-336.421630859375,2,-21.07684326171875,117.3623046875,-338.08349609375,3,103.941162109375,196.22607421875,24.516357421875,0.0,0.0,0.0,0.0,-0.0022222222222222222,-0.0,-0.0011111111111111111,-0.18,1.82,9.69,11.682172192000001
1671151804.7923641,0,-177.9158935546875,195.227783203125,35.323486328125,1,-73.9290771484375,116.746337890625,-336.419921875,2,-21.055419921875,117.336181640625,-338.0517578125,3,103.965087890625,196.157958984375,24.509765625,0.0,0.0,0.0,0.0,-0.0022222222222222222,-0.0,-0.0011111111111111111,-0.18,1.82,9.69,11.682172192000001
1671151804.802176,0,-178.05035400390625,195.197509765625,35.312255859375,1,-73.85809326171875,116.70654296875,-336.462158203125,2,-21.0654296875,117.303466796875,-338.048095703125,3,103.949951171875,196.154052734375,24.5322265625,0.0,0.0,0.0,0.0,-0.0022222222222222222,-0.0,-0.0011111111111111111,-0.18,1.82,9.69,11.682172192000001
1671151804.812132,0,-177.85662841796875,195.1875,35.279296875,1,-73.9642333984375,116.775390625,-336.44140625,2,-21.07562255859375,117.371826171875,-338.07275390625,3,103.953857421875,196.214111328125,24.536376953125,0.0,0.0,0.0,0.0,0.0011111111111111111,-0.0033333333333333335,-0.0011111111111111111,-0.17,1.83,9.63,11.682172192000001
1671151804.8221672,0,-177.85186767578125,195.237060546875,35.32470703125,1,-73.93310546875,116.760986328125,-336.40283203125,2,-21.0609130859375,117.37158203125,-338.05224609375,3,103.972412109375,196.21337890625,24.5234375,0.0,0.0,0.0,0.0,0.0011111111111111111,-0.0033333333333333335,-0.0011111111111111111,-0.17,1.83,9.63,11.682172192000001
1671151804.832161,0,-177.629150390625,195.437744140625,35.16259765625,1,-73.92413330078125,116.765625,-336.440185546875,2,-21.0557861328125,117.366455078125,-338.060302734375,3,103.958984375,196.194091796875,24.519775390625,0.0,0.0,0.0,0.0,0.0011111111111111111,-0.0033333333333333335,-0.0011111111111111111,-0.17,1.83,9.63,11.682172192000001
1671151804.8422027,0,-177.865478515625,195.14453125,35.3212890625,1,-73.94580078125,116.746337890625,-336.38916015625,2,-21.07086181640625,117.307373046875,-338.023681640625,3,103.946044921875,196.174560546875,24.50341796875,0.0,0.0,0.0,0.0,0.0011111111111111111,-0.0033333333333333335,-0.0011111111111111111,-0.17,1.83,9.63,11.682172192000001
1671151804.8520262,0,-177.8319091796875,195.185791015625,35.328125,1,-73.80010986328125,116.69970703125,-336.414306640625,2,-21.0478515625,117.3515625,-338.060546875,3,103.951904296875,196.203125,24.523681640625,0.0,0.0,0.0,0.0,0.0011111111111111111,-0.0033333333333333335,-0.0011111111111111111,-0.17,1.83,9.63,11.682172192000001
1671151804.8620965,0,-177.8675537109375,195.15625,35.2666015625,1,-73.86480712890625,116.753173828125,-336.406494140625,2,-21.05682373046875,117.343017578125,-338.012939453125,3,104.0101318359375,196.203857421875,24.518798828125,0.0,0.0,0.0,0.0,0.0011111111111111111,-0.0033333333333333335,-0.0011111111111111111,-0.17,1.83,9.63,11.682172192000001
1671151804.8721201,0,-177.89166259765625,195.2138671875,35.3330078125,1,-73.87689208984375,116.725830078125,-336.416015625,2,-21.0606689453125,117.374267578125,-338.045654296875,3,104.013671875,196.17529296875,24.537841796875,0.0,0.0,0.0,0.0,0.0,-0.0,-0.0011111111111111111,-0.18,1.83,9.67,11.678878656
1671151804.8821726,0,-177.85894775390625,195.163818359375,35.29931640625,1,-73.92047119140625,116.7099609375,-336.389404296875,2,-21.0927734375,117.346435546875,-338.072021484375,3,103.993896484375,196.237060546875,24.506103515625,0.0,0.0,0.0,0.0,0.0,-0.0,-0.0011111111111111111,-0.18,1.83,9.67,11.678878656
1671151804.8921635,0,-177.90478515625,195.18701171875,35.340576171875,1,-73.83575439453125,116.696533203125,-336.40673828125,2,-20.9561767578125,117.324951171875,-338.07568359375,3,103.9068603515625,196.1962890625,24.51953125,0.0,0.0,0.0,0.0,0.0,-0.0,-0.0011111111111111111,-0.18,1.83,9.67,11.678878656
1671151804.9021177,0,-177.7943115234375,195.30078125,35.263671875,1,-73.8433837890625,116.76171875,-336.44384765625,2,-21.09637451171875,117.323486328125,-338.078125,3,103.935791015625,196.16162109375,24.53173828125,0.0,0.0,0.0,0.0,0.0,-0.0,-0.0011111111111111111,-0.18,1.83,9.67,11.678878656
1671151804.91226,0,-177.86767578125,195.15625,35.34130859375,1,-73.945068359375,116.707763671875,-336.43212890625,2,-21.0960693359375,117.342529296875,-338.070556640625,3,103.9549560546875,196.172607421875,24.5380859375,0.0,0.0,0.0,0.0,0.0,-0.0,-0.0011111111111111111,-0.18,1.83,9.67,11.678878656
1671151804.922227,0,-177.8963623046875,195.158447265625,35.327392578125,1,-73.9417724609375,116.795654296875,-336.430419921875,2,-21.02642822265625,117.3271484375,-338.061279296875,3,103.9873046875,196.161376953125,24.513916015625,0.0,0.0,0.0,0.0,-0.0033333333333333335,0.0033333333333333335,-0.0011111111111111111,-0.19,1.84,9.67,11.678878656
1671151804.9321692,0,-177.840087890625,195.1650390625,35.30419921875,1,-73.885498046875,116.701416015625,-336.40234375,2,-21.03466796875,117.347900390625,-338.063232421875,3,104.023193359375,196.150390625,24.548828125,0.0,0.0,0.0,0.0,-0.0033333333333333335,0.0033333333333333335,-0.0011111111111111111,-0.19,1.84,9.67,11.678878656
1671151804.9421713,0,-177.84735107421875,195.160400390625,35.29833984375,1,-73.88739013671875,116.746826171875,-336.441650390625,2,-21.07177734375,117.356689453125,-338.077880859375,3,103.92919921875,196.18310546875,24.493408203125,0.0,0.0,0.0,0.0,-0.0033333333333333335,0.0033333333333333335,-0.0011111111111111111,-0.19,1.84,9.67,11.678878656
1671151804.952119,0,-177.9930419921875,195.097412109375,35.35791015625,1,-73.85223388671875,116.73876953125,-336.43505859375,2,-21.0850830078125,117.32763671875,-338.04931640625,3,103.947509765625,196.157958984375,24.52392578125,0.0,0.0,0.0,0.0,0.0,-0.0,-0.0,-0.17,1.85,9.69,11.685465728
1671151804.9621131,0,-177.87933349609375,195.1962890625,35.23388671875,1,-73.90362548828125,116.742919921875,-336.400634765625,2,-21.05645751953125,117.331298828125,-338.05517578125,3,103.968994140625,196.19189453125,24.541259765625,0.0,0.0,0.0,0.0,0.0,-0.0,-0.0,-0.17,1.85,9.69,11.685465728
1671151804.972166,0,-177.871826171875,195.17431640625,35.32421875,1,-73.90289306640625,116.7392578125,-336.416748046875,2,-21.05615234375,117.32763671875,-338.046142578125,3,104.0020751953125,196.21240234375,24.5439453125,0.0,0.0,0.0,0.0,0.0,-0.0,-0.0,-0.17,1.85,9.69,11.685465728
1671151804.9821527,0,-177.86444091796875,195.18115234375,35.304443359375,1,-73.97515869140625,116.736572265625,-336.413330078125,2,-21.03668212890625,117.30419921875,-338.04443359375,3,103.96826171875,196.19384765625,24.550048828125,0.0,0.0,0.0,0.0,0.0,-0.0,-0.0,-0.17,1.85,9.69,11.685465728
1671151804.992172,0,-177.9522705078125,195.152099609375,35.33544921875,1,-73.90875244140625,116.7373046875,-336.439453125,2,-21.0694580078125,117.329833984375,-338.064208984375,3,103.900390625,196.18701171875,24.506591796875,0.0,0.0,0.0,0.0,0.0,-0.0,-0.0,-0.17,1.85,9.69,11.685465728
1671151805.0021613,0,-177.945556640625,195.14990234375,35.34814453125,1,-73.82470703125,116.708251953125,-336.430419921875,2,-21.067138671875,117.345703125,-338.087158203125,3,103.95166015625,196.19775390625,24.510009765625,0.0,0.0,0.0,0.0,0.0,-0.0,-0.0,-0.17,1.85,9.69,11.685465728
1671151805.0121603,0,-177.880126953125,195.147705078125,35.33935546875,1,-73.95703125,116.743408203125,-336.389892578125,2,-21.0567626953125,117.3095703125,-338.0986328125,3,103.9232177734375,196.1865234375,24.518798828125,0.0,0.0,0.0,0.0,0.0,-0.0,-0.0033333333333333335,-0.19,1.85,9.7,11.655823904
1671151805.0221624,0,-177.9412841796875,195.150390625,35.333740234375,1,-73.8917236328125,116.728515625,-336.4228515625,2,-21.051513671875,117.306396484375,-338.057861328125,3,103.95556640625,196.22412109375,24.53076171875,0.0,0.0,0.0,0.0,0.0,-0.0,-0.0033333333333333335,-0.19,1.85,9.7,11.655823904
1671151805.0321507,0,-177.927734375,195.137451171875,35.320068359375,1,-73.892578125,116.742431640625,-336.439208984375,2,-21.0455322265625,117.31201171875,-338.058837890625,3,103.9879150390625,196.23388671875,24.535400390625,0.0,0.0,0.0,0.0,0.0,-0.0,-0.0033333333333333335,-0.19,1.85,9.7,11.655823904
1671151805.0421178,0,-177.9234619140625,195.154541015625,35.310302734375,1,-73.81024169921875,116.68896484375,-336.433349609375,2,-21.0601806640625,117.362060546875,-338.072021484375,3,103.9493408203125,196.171630859375,24.529296875,0.0,0.0,0.0,0.0,0.0,-0.0,-0.0033333333333333335,-0.19,1.85,9.7,11.655823904
1671151805.0520818,0,-178.06085205078125,195.02685546875,35.42626953125,1,-73.88031005859375,116.713134765625,-336.43359375,2,-21.076416015625,117.308837890625,-338.063232421875,3,103.9189453125,196.159423828125,24.51611328125,0.0,0.0,0.0,0.0,0.0,-0.0,-0.0033333333333333335,-0.19,1.85,9.7,11.655823904
1671151805.062043,0,-177.8565673828125,195.14111328125,35.306396484375,1,-73.84552001953125,116.727783203125,-336.4912109375,2,-21.044921875,117.3271484375,-338.05029296875,3,104.0037841796875,196.2412109375,24.518798828125,0.0,0.0,0.0,0.0,0.0,-0.0,-0.0033333333333333335,-0.19,1.85,9.7,11.655823904
1671151805.0720513,0,-177.93310546875,195.114990234375,35.349365234375,1,-73.92578125,116.772705078125,-336.413330078125,2,-21.04779052734375,117.362548828125,-338.031982421875,3,103.9434814453125,196.210205078125,24.538818359375,0.0,0.0,0.0,0.0,-0.0011111111111111111,-0.0,-0.0,-0.18,1.82,9.67,11.668998048
1671151805.0820704,0,-177.97589111328125,195.07763671875,35.36083984375,1,-73.9339599609375,116.75,-336.458251953125,2,-21.040771484375,117.36669921875,-338.06201171875,3,103.96923828125,196.19384765625,24.5390625,0.0,0.0,0.0,0.0,-0.0011111111111111111,-0.0,-0.0,-0.18,1.82,9.67,11.668998048
1671151805.092133,0,-177.896728515625,195.195068359375,35.322509765625,1,-73.90325927734375,116.717529296875,-336.42822265625,2,-21.03094482421875,117.377685546875,-338.08447265625,3,103.94775390625,196.1767578125,24.537109375,0.0,0.0,0.0,0.0,-0.0011111111111111111,-0.0,-0.0,-0.18,1.82,9.67,11.668998048
1671151805.1020281,0,-177.87738037109375,195.2001953125,35.322021484375,1,-73.84234619140625,116.71484375,-336.42529296875,2,-21.04766845703125,117.364013671875,-338.07080078125,3,103.9505615234375,196.185302734375,24.5068359375,0.0,0.0,0.0,0.0,-0.0011111111111111111,-0.0,-0.0,-0.18,1.82,9.67,11.668998048
1671151805.1120598,0,-177.85040283203125,195.150634765625,35.278076171875,1,-73.917236328125,116.784912109375,-336.4072265625,2,-21.06378173828125,117.427490234375,-338.086181640625,3,103.97998046875,196.228759765625,24.5078125,0.0,0.0,0.0,0.0,-0.0011111111111111111,-0.0,-0.0,-0.18,1.82,9.67,11.668998048
1671151805.1220632,0,-177.82891845703125,195.23583984375,35.30712890625,1,-73.8878173828125,116.744873046875,-336.41552734375,2,-21.07403564453125,117.3828125,-338.076904296875,3,103.89501953125,196.267333984375,24.55810546875,0.0,0.0,0.0,0.0,0.0011111111111111111,0.0022222222222222222,0.0011111111111111111,-0.19,1.82,9.65,11.685465728
1671151805.132069,0,-177.7767333984375,195.201904296875,35.28857421875,1,-73.90093994140625,116.69580078125,-336.41748046875,2,-21.0653076171875,117.33251953125,-338.078369140625,3,103.9910888671875,196.232177734375,24.552490234375,0.0,0.0,0.0,0.0,0.0011111111111111111,0.0022222222222222222,0.0011111111111111111,-0.19,1.82,9.65,11.685465728
1671151805.1421056,0,-177.85809326171875,195.195068359375,35.29638671875,1,-73.90240478515625,116.75,-336.437744140625,2,-21.08282470703125,117.3720703125,-338.06298828125,3,103.9248046875,196.173095703125,24.492919921875,0.0,0.0,0.0,0.0,0.0011111111111111111,0.0022222222222222222,0.0011111111111111111,-0.19,1.82,9.65,11.685465728
1671151805.1520226,0,-177.9345703125,195.136962890625,35.326171875,1,-73.96435546875,116.76416015625,-336.426513671875,2,-21.062255859375,117.34521484375,-338.07177734375,3,103.9302978515625,196.172119140625,24.532470703125,0.0,0.0,0.0,0.0,-0.0011111111111111111,0.0022222222222222222,-0.0022222222222222222,-0.21,1.83,9.69,11.675585120000001
1671151805.1620438,0,-177.826416015625,195.17626953125,35.251220703125,1,-73.881103515625,116.748291015625,-336.39404296875,2,-21.057373046875,117.342041015625,-338.077880859375,3,103.9468994140625,196.19091796875,24.544677734375,0.0,0.0,0.0,0.0,-0.0011111111111111111,0.0022222222222222222,-0.0022222222222222222,-0.21,1.83,9.69,11.675585120000001
1671151805.1720443,0,-177.80755615234375,195.259521484375,35.2880859375,1,-73.9373779296875,116.773193359375,-336.442626953125,2,-21.0556640625,117.38134765625,-338.078369140625,3,103.9464111328125,196.215576171875,24.50244140625,0.0,0.0,0.0,0.0,-0.0011111111111111111,0.0022222222222222222,-0.0022222222222222222,-0.21,1.83,9.69,11.675585120000001
1671151805.1820598,0,-177.94671630859375,195.166015625,35.31640625,1,-73.9200439453125,116.7626953125,-336.4287109375,2,-21.07733154296875,117.373779296875,-338.1005859375,3,103.9652099609375,196.218017578125,24.518310546875,0.0,0.0,0.0,0.0,-0.0011111111111111111,0.0022222222222222222,-0.0022222222222222222,-0.21,1.83,9.69,11.675585120000001
1671151805.1921744,0,-177.89727783203125,195.227294921875,35.31005859375,1,-73.86322021484375,116.71337890625,-336.418701171875,2,-21.05316162109375,117.394775390625,-338.076904296875,3,103.9541015625,196.169189453125,24.513427734375,0.0,0.0,0.0,0.0,-0.0011111111111111111,0.0022222222222222222,-0.0022222222222222222,-0.21,1.83,9.69,11.675585120000001
1671151805.202065,0,-177.85711669921875,195.255615234375,35.271484375,1,-73.88836669921875,116.733154296875,-336.43994140625,2,-21.0550537109375,117.3447265625,-338.0625,3,103.9588623046875,196.141357421875,24.509033203125,0.0,0.0,0.0,0.0,-0.0011111111111111111,0.0022222222222222222,-0.0022222222222222222,-0.21,1.83,9.69,11.675585120000001
1671151805.2122018,0,-177.88232421875,195.121337890625,35.289306640625,1,-73.90435791015625,116.7744140625,-336.4384765625,2,-21.03485107421875,117.3828125,-338.053466796875,3,103.9638671875,196.22412109375,24.51171875,0.0,0.0,0.0,0.0,0.0,0.0033333333333333335,-0.0011111111111111111,-0.18,1.83,9.71,11.675585120000001
1671151805.222171,0,-177.91748046875,195.173095703125,35.290771484375,1,-73.923583984375,116.74560546875,-336.425537109375,2,-21.04632568359375,117.3740234375,-338.084716796875,3,103.9625244140625,196.222900390625,24.5048828125,0.0,0.0,0.0,0.0,0.0,0.0033333333333333335,-0.0011111111111111111,-0.18,1.83,9.71,11.675585120000001
1671151805.2321563,0,-177.83819580078125,195.200927734375,35.328369140625,1,-73.931884765625,116.74658203125,-336.416259765625,2,-21.04864501953125,117.356689453125,-338.05810546875,3,103.9639892578125,196.21142578125,24.5517578125,0.0,0.0,0.0,0.0,0.0,0.0033333333333333335,-0.0011111111111111111,-0.18,1.83,9.71,11.675585120000001
1671151805.2421806,0,-177.8380126953125,195.250732421875,35.2880859375,1,-73.86846923828125,116.71875,-336.444091796875,2,-21.0311279296875,117.34912109375,-338.086181640625,3,103.8941650390625,196.224609375,24.487060546875,0.0,0.0,0.0,0.0,0.0,0.0033333333333333335,-0.0011111111111111111,-0.18,1.83,9.71,11.675585120000001
1671151805.2521982,0,-177.8353271484375,195.286865234375,35.28662109375,1,-73.931396484375,116.77001953125,-336.39990234375,2,-21.07244873046875,117.34619140625,-338.070068359375,3,103.9625244140625,196.206787109375,24.504150390625,0.0,0.0,0.0,0.0,0.0,0.0033333333333333335,-0.0011111111111111111,-0.18,1.83,9.71,11.675585120000001
1671151805.262108,0,-177.924072265625,195.106201171875,35.286376953125,1,-73.83465576171875,116.722412109375,-336.423095703125,2,-21.0133056640625,117.3447265625,-338.04541015625,3,103.9801025390625,196.22900390625,24.52880859375,0.0,0.0,0.0,0.0,0.0,-0.0,-0.0,-0.17,1.85,9.72,11.665704512
1671151805.272105,0,-177.87884521484375,195.21142578125,35.302001953125,1,-73.904541015625,116.75,-336.38671875,2,-21.0277099609375,117.35302734375,-338.06591796875,3,103.9620361328125,196.22314453125,24.499755859375,0.0,0.0,0.0,0.0,0.0,-0.0,-0.0,-0.17,1.85,9.72,11.665704512
1671151805.282144,0,-177.94598388671875,195.21533203125,35.2978515625,1,-73.951171875,116.755126953125,-336.382568359375,2,-21.005615234375,117.344482421875,-338.06494140625,3,103.9749755859375,196.224365234375,24.53271484375,0.0,0.0,0.0,0.0,0.0,-0.0,-0.0,-0.17,1.85,9.72,11.665704512
1671151805.2921667,0,-177.96600341796875,195.20166015625,35.270263671875,1,-73.936767578125,116.8046875,-336.385498046875,2,-21.01177978515625,117.39013671875,-338.093505859375,3,103.9561767578125,196.20068359375,24.5009765625,0.0,0.0,0.0,0.0,0.0,-0.0,-0.0,-0.17,1.85,9.72,11.665704512
1671151805.3021522,0,-177.85595703125,195.206787109375,35.312744140625,1,-73.92138671875,116.751220703125,-336.410400390625,2,-21.06207275390625,117.359619140625,-338.1005859375,3,103.937744140625,196.184326171875,24.51806640625,0.0,0.0,0.0,0.0,0.0,-0.0,-0.0,-0.17,1.85,9.72,11.665704512
1671151805.3120666,0,-177.82427978515625,195.18994140625,35.272705078125,1,-73.87359619140625,116.699462890625,-336.439453125,2,-21.04876708984375,117.359619140625,-338.0751953125,3,103.990478515625,196.202880859375,24.5087890625,0.0,0.0,0.0,0.0,-0.0011111111111111111,0.0022222222222222222,-0.0011111111111111111,-0.18,1.82,9.64,11.668998048
1671151805.3220901,0,-177.92852783203125,195.1943359375,35.288818359375,1,-73.83526611328125,116.7294921875,-336.44287109375,2,-21.0811767578125,117.41650390625,-338.1142578125,3,103.9884033203125,196.253662109375,24.50634765625,0.0,0.0,0.0,0.0,-0.0011111111111111111,0.0022222222222222222,-0.0011111111111111111,-0.18,1.82,9.64,11.668998048
1671151805.3321307,0,-177.88714599609375,195.200927734375,35.313232421875,1,-73.90252685546875,116.74267578125,-336.4345703125,2,-21.06048583984375,117.420654296875,-338.09912109375,3,103.9608154296875,196.236328125,24.524169921875,0.0,0.0,0.0,0.0,-0.0011111111111111111,0.0022222222222222222,-0.0011111111111111111,-0.18,1.82,9.64,11.668998048
1671151805.3421762,0,-177.8663330078125,195.209228515625,35.29541015625,1,-73.94744873046875,116.737060546875,-336.407470703125,2,-21.04150390625,117.349853515625,-338.02880859375,3,103.9642333984375,196.18017578125,24.510498046875,0.0,0.0,0.0,0.0,-0.0011111111111111111,0.0022222222222222222,-0.0011111111111111111,-0.18,1.82,9.64,11.668998048
1671151805.3521745,0,-177.93927001953125,195.2080078125,35.298828125,1,-73.88275146484375,116.722900390625,-336.483642578125,2,-21.02215576171875,117.291748046875,-338.078369140625,3,103.908935546875,196.19482421875,24.496337890625,0.0,0.0,0.0,0.0,-0.0011111111111111111,0.0022222222222222222,-0.0011111111111111111,-0.18,1.82,9.64,11.668998048
1671151805.3621724,0,-177.78961181640625,195.221435546875,35.2265625,1,-73.931884765625,116.78125,-336.431884765625,2,-21.05548095703125,117.3603515625,-338.093017578125,3,103.896728515625,196.243896484375,24.532470703125,0.0,0.0,0.0,0.0,-0.28444444444444444,-0.0,-0.0,-0.19,1.85,9.68,11.678878656
1671151805.3721683,0,-177.82269287109375,195.244873046875,35.269775390625,1,-73.96368408203125,116.77490234375,-336.431884765625,2,-21.03631591796875,117.381103515625,-338.101318359375,3,103.96826171875,196.1943359375,24.541259765625,0.0,0.0,0.0,0.0,-0.28444444444444444,-0.0,-0.0,-0.19,1.85,9.68,11.678878656
1671151805.3821478,0,-177.79510498046875,195.22705078125,35.253173828125,1,-73.95672607421875,116.7373046875,-336.432373046875,2,-21.12835693359375,117.362548828125,-338.08154296875,3,103.9422607421875,196.207275390625,24.51171875,0.0,0.0,0.0,0.0,-0.28444444444444444,-0.0,-0.0,-0.19,1.85,9.68,11.678878656
1671151805.3921769,0,-177.9212646484375,195.147705078125,35.345703125,1,-73.8431396484375,116.677490234375,-336.405029296875,2,-21.0374755859375,117.308837890625,-338.067138671875,3,103.90966796875,196.177490234375,24.475341796875,0.0,0.0,0.0,0.0,-0.28444444444444444,-0.0,-0.0,-0.19,1.85,9.68,11.678878656
1671151805.4021184,0,-177.8394775390625,195.2333984375,35.268310546875,1,-73.90997314453125,116.755859375,-336.4287109375,2,-21.0535888671875,117.299560546875,-338.07373046875,3,103.94189453125,196.167236328125,24.496337890625,0.0,0.0,0.0,0.0,-0.28444444444444444,-0.0,-0.0,-0.19,1.85,9.68,11.678878656
1671151805.4121983,0,-177.85809326171875,195.21240234375,35.26904296875,1,-73.96636962890625,116.752685546875,-336.416748046875,2,-21.04925537109375,117.300048828125,-338.08642578125,3,103.9520263671875,196.13525390625,24.50732421875,0.0,0.0,0.0,0.0,-0.28444444444444444,-0.0,-0.0,-0.19,1.85,9.68,11.678878656
1671151805.422166,0,-177.99261474609375,195.196044921875,35.297607421875,1,-73.9327392578125,116.7451171875,-336.38720703125,2,-21.04638671875,117.342041015625,-338.07080078125,3,104.02490234375,196.181640625,24.547607421875,0.0,0.0,0.0,0.0,0.0,-0.0033333333333333335,-0.0011111111111111111,-0.18,1.83,9.67,11.662410976
1671151805.4320767,0,-177.92645263671875,195.197021484375,35.2705078125,1,-73.93292236328125,116.769287109375,-336.416259765625,2,-21.0340576171875,117.346923828125,-338.0791015625,3,103.99267578125,196.19580078125,24.530029296875,0.0,0.0,0.0,0.0,0.0,-0.0033333333333333335,-0.0011111111111111111,-0.18,1.83,9.67,11.662410976
1671151805.4421782,0,-177.9005126953125,195.189208984375,35.288330078125,1,-73.8692626953125,116.745361328125,-336.4580078125,2,-21.0338134765625,117.427001953125,-338.134765625,3,103.94677734375,196.1923828125,24.516845703125,0.0,0.0,0.0,0.0,0.0,-0.0033333333333333335,-0.0011111111111111111,-0.18,1.83,9.67,11.662410976
1671151805.4520633,0,-177.8919677734375,195.197509765625,35.2822265625,1,-73.9580078125,116.813232421875,-336.399658203125,2,-21.0567626953125,117.316650390625,-338.0703125,3,103.9481201171875,196.177001953125,24.5107421875,0.0,0.0,0.0,0.0,0.0,-0.0033333333333333335,-0.0011111111111111111,-0.18,1.83,9.67,11.662410976
1671151805.4620614,0,-177.9808349609375,195.117431640625,35.28857421875,1,-73.95379638671875,116.772216796875,-336.434326171875,2,-21.046630859375,117.37646484375,-338.114013671875,3,103.9595947265625,196.23779296875,24.5205078125,0.0,0.0,0.0,0.0,0.0011111111111111111,-0.0033333333333333335,0.0022222222222222222,-0.19,1.84,9.69,11.662410976
1671151805.4720623,0,-177.8118896484375,195.2744140625,35.281494140625,1,-73.88848876953125,116.740966796875,-336.44287109375,2,-21.03466796875,117.353759765625,-338.05322265625,3,104.0303955078125,196.220703125,24.539306640625,0.0,0.0,0.0,0.0,0.0011111111111111111,-0.0033333333333333335,0.0022222222222222222,-0.19,1.84,9.69,11.662410976
1671151805.4820652,0,-177.884765625,195.2314453125,35.27783203125,1,-73.8594970703125,116.76171875,-336.459228515625,2,-21.0518798828125,117.36083984375,-338.0732421875,3,103.9959716796875,196.21435546875,24.520263671875,0.0,0.0,0.0,0.0,0.0011111111111111111,-0.0033333333333333335,0.0022222222222222222,-0.19,1.84,9.69,11.662410976
1671151805.492165,0,-177.90386962890625,195.190673828125,35.31982421875,1,-73.90740966796875,116.784423828125,-336.427978515625,2,-21.0943603515625,117.3955078125,-338.062744140625,3,103.9501953125,196.158203125,24.483642578125,0.0,0.0,0.0,0.0,0.0011111111111111111,-0.0033333333333333335,0.0022222222222222222,-0.19,1.84,9.69,11.662410976
1671151805.50208,0,-177.8438720703125,195.26220703125,35.216552734375,1,-73.86846923828125,116.74169921875,-336.43310546875,2,-21.0635986328125,117.3330078125,-338.091552734375,3,103.9310302734375,196.16748046875,24.485595703125,0.0,0.0,0.0,0.0,0.0011111111111111111,-0.0033333333333333335,0.0022222222222222222,-0.19,1.84,9.69,11.662410976
1671151805.512063,0,-177.84857177734375,195.191162109375,35.27294921875,1,-73.91168212890625,116.757568359375,-336.44384765625,2,-21.02947998046875,117.361083984375,-338.071533203125,3,103.9990234375,196.196044921875,24.534912109375,0.0,0.0,0.0,0.0,-0.0011111111111111111,0.0011111111111111111,-0.0011111111111111111,-0.18,1.85,9.7,11.682172192000001
1671151805.5221686,0,-177.84747314453125,195.2314453125,35.30029296875,1,-73.77752685546875,116.715576171875,-336.45849609375,2,-21.05718994140625,117.369140625,-338.075927734375,3,103.9776611328125,196.249267578125,24.518798828125,0.0,0.0,0.0,0.0,-0.0011111111111111111,0.0011111111111111111,-0.0011111111111111111,-0.18,1.85,9.7,11.682172192000001
1671151805.5320287,0,-177.82965087890625,195.239990234375,35.254150390625,1,-73.94183349609375,116.71337890625,-336.41015625,2,-21.073974609375,117.332275390625,-338.090087890625,3,103.9476318359375,196.23974609375,24.523193359375,0.0,0.0,0.0,0.0,-0.0011111111111111111,0.0011111111111111111,-0.0011111111111111111,-0.18,1.85,9.7,11.682172192000001
1671151805.542176,0,-177.8060302734375,195.3212890625,35.312255859375,1,-73.9178466796875,116.748291015625,-336.41552734375,2,-21.03448486328125,117.3740234375,-338.065185546875,3,103.953369140625,196.190673828125,24.534423828125,0.0,0.0,0.0,0.0,-0.0011111111111111111,0.0011111111111111111,-0.0011111111111111111,-0.18,1.85,9.7,11.682172192000001
1671151805.552062,0,-177.86590576171875,195.256591796875,35.290283203125,1,-73.85333251953125,116.73974609375,-336.43017578125,2,-21.07421875,117.32470703125,-338.073974609375,3,103.900390625,196.212158203125,24.508544921875,0.0,0.0,0.0,0.0,-0.0011111111111111111,0.0011111111111111111,-0.0011111111111111111,-0.18,1.85,9.7,11.682172192000001
1671151805.5620754,0,-177.84014892578125,195.26513671875,35.271728515625,1,-73.94451904296875,116.7109375,-336.390625,2,-21.075439453125,117.35205078125,-338.09619140625,3,103.923828125,196.1796875,24.52587890625,0.0,0.0,0.0,0.0,-0.0011111111111111111,0.0011111111111111111,-0.0011111111111111111,-0.18,1.85,9.7,11.682172192000001
1671151805.572063,0,-177.81573486328125,195.244384765625,35.306396484375,1,-73.87384033203125,116.729736328125,-336.47265625,2,-21.04156494140625,117.36376953125,-338.08154296875,3,103.8994140625,196.300537109375,24.5439453125,0.0,0.0,0.0,0.0,0.0,0.0033333333333333335,-0.0011111111111111111,-0.2,1.83,9.68,11.678878656
1671151805.5820599,0,-177.8515625,195.27392578125,35.2900390625,1,-73.915283203125,116.7626953125,-336.46484375,2,-21.03607177734375,117.35009765625,-338.066162109375,3,103.9478759765625,196.244384765625,24.512451171875,0.0,0.0,0.0,0.0,0.0,0.0033333333333333335,-0.0011111111111111111,-0.2,1.83,9.68,11.678878656
1671151805.592167,0,-177.814697265625,195.27978515625,35.2763671875,1,-73.91229248046875,116.80126953125,-336.422607421875,2,-21.03961181640625,117.37548828125,-338.07763671875,3,103.925537109375,196.1640625,24.519287109375,0.0,0.0,0.0,0.0,0.0,0.0033333333333333335,-0.0011111111111111111,-0.2,1.83,9.68,11.678878656
1671151805.6020586,0,-177.82659912109375,195.290771484375,35.246337890625,1,-73.8861083984375,116.729736328125,-336.425048828125,2,-21.05938720703125,117.36376953125,-338.110595703125,3,103.9188232421875,196.2109375,24.5029296875,0.0,0.0,0.0,0.0,0.0,0.0033333333333333335,-0.0011111111111111111,-0.2,1.83,9.68,11.678878656
1671151805.6120586,0,-177.74359130859375,195.21826171875,35.233154296875,1,-73.88885498046875,116.74853515625,-336.419677734375,2,-21.0440673828125,117.39892578125,-338.08056640625,3,103.99609375,196.1865234375,24.520751953125,0.0,0.0,0.0,0.0,0.0,-0.0011111111111111111,-0.0022222222222222222,-0.19,1.83,9.69,11.682172192000001
1671151805.6220653,0,-177.82501220703125,195.251220703125,35.290283203125,1,-73.8890380859375,116.70703125,-336.40283203125,2,-21.0318603515625,117.417724609375,-338.06689453125,3,103.9873046875,196.22314453125,24.531005859375,0.0,0.0,0.0,0.0,0.0,-0.0011111111111111111,-0.0022222222222222222,-0.19,1.83,9.69,11.682172192000001
1671151805.632064,0,-177.85186767578125,195.248046875,35.32177734375,1,-73.921875,116.769287109375,-336.417236328125,2,-21.04156494140625,117.396240234375,-338.10009765625,3,104.0023193359375,196.222412109375,24.526123046875,0.0,0.0,0.0,0.0,0.0,-0.0011111111111111111,-0.0022222222222222222,-0.19,1.83,9.69,11.682172192000001
1671151805.642116,0,-177.887939453125,195.154541015625,35.343505859375,1,-73.83880615234375,116.709228515625,-336.42919921875,2,-21.05419921875,117.373291015625,-338.1044921875,3,103.962646484375,196.162841796875,24.512939453125,0.0,0.0,0.0,0.0,0.0,-0.0011111111111111111,-0.0022222222222222222,-0.19,1.83,9.69,11.682172192000001
1671151805.6520584,0,-177.8453369140625,195.241455078125,35.263671875,1,-73.8992919921875,116.765625,-336.42529296875,2,-21.19720458984375,117.424560546875,-338.087158203125,3,103.920166015625,196.180419921875,24.49560546875,0.0,0.0,0.0,0.0,0.0,-0.0011111111111111111,-0.0022222222222222222,-0.19,1.83,9.69,11.682172192000001
1671151805.6620595,0,-177.8870849609375,195.15576171875,35.23291015625,1,-73.87347412109375,116.713623046875,-336.418212890625,2,-21.06512451171875,117.39306640625,-338.0947265625,3,104.02685546875,196.18310546875,24.51708984375,0.0,0.0,0.0,0.0,-0.2822222222222222,0.0033333333333333335,-0.0011111111111111111,-0.18,1.84,9.7,11.668998048
1671151805.6721597,0,-177.8883056640625,195.234619140625,35.33740234375,1,-73.8321533203125,116.70166015625,-336.48046875,2,-21.07196044921875,117.40380859375,-338.087890625,3,104.0045166015625,196.187744140625,24.536865234375,0.0,0.0,0.0,0.0,-0.2822222222222222,0.0033333333333333335,-0.0011111111111111111,-0.18,1.84,9.7,11.668998048
1671151805.6820283,0,-177.84844970703125,195.215087890625,35.25634765625,1,-73.9539794921875,116.75634765625,-336.42041015625,2,-21.0755615234375,117.34912109375,-338.087646484375,3,103.9814453125,196.1767578125,24.5302734375,0.0,0.0,0.0,0.0,-0.2822222222222222,0.0033333333333333335,-0.0011111111111111111,-0.18,1.84,9.7,11.668998048
1671151805.69216,0,-177.9456787109375,195.112548828125,35.369140625,1,-73.95654296875,116.76123046875,-336.444580078125,2,-21.07611083984375,117.368896484375,-338.098876953125,3,103.93408203125,196.163330078125,24.491943359375,0.0,0.0,0.0,0.0,-0.2822222222222222,0.0033333333333333335,-0.0011111111111111111,-0.18,1.84,9.7,11.668998048
1671151805.7020593,0,-177.84954833984375,195.210205078125,35.29248046875,1,-73.89215087890625,116.73583984375,-336.43896484375,2,-21.074462890625,117.3466796875,-338.097900390625,3,103.9427490234375,196.161865234375,24.514404296875,0.0,0.0,0.0,0.0,-0.2822222222222222,0.0033333333333333335,-0.0011111111111111111,-0.18,1.84,9.7,11.668998048
1671151805.7120771,0,-177.926513671875,195.17724609375,35.328857421875,1,-73.99847412109375,116.752685546875,-336.407958984375,2,-21.07733154296875,117.344482421875,-338.07763671875,3,103.934814453125,196.166748046875,24.505126953125,0.0,0.0,0.0,0.0,0.0,-0.0011111111111111111,-0.0011111111111111111,-0.16,1.84,9.65,11.672291584
1671151805.7220626,0,-177.9639892578125,195.10498046875,35.369140625,1,-73.9517822265625,116.789306640625,-336.439453125,2,-21.06610107421875,117.338623046875,-338.03759765625,3,103.996826171875,196.2158203125,24.531982421875,0.0,0.0,0.0,0.0,0.0,-0.0011111111111111111,-0.0011111111111111111,-0.16,1.84,9.65,11.672291584
1671151805.732069,0,-177.89453125,195.1552734375,35.318603515625,1,-73.88067626953125,116.718994140625,-336.438720703125,2,-21.06646728515625,117.352783203125,-338.05419921875,3,103.9805908203125,196.23388671875,24.489013671875,0.0,0.0,0.0,0.0,0.0,-0.0011111111111111111,-0.0011111111111111111,-0.16,1.84,9.65,11.672291584
1671151805.7421582,0,-177.81317138671875,195.197509765625,35.287109375,1,-73.92779541015625,116.73876953125,-336.423828125,2,-21.08831787109375,117.382080078125,-338.061279296875,3,103.935302734375,196.18310546875,24.509765625,0.0,0.0,0.0,0.0,0.0,-0.0011111111111111111,-0.0011111111111111111,-0.16,1.84,9.65,11.672291584
1671151805.7520647,0,-177.82568359375,195.224609375,35.263427734375,1,-73.9525146484375,116.76416015625,-336.447265625,2,-21.11273193359375,117.3603515625,-338.04833984375,3,103.9591064453125,196.148193359375,24.501220703125,0.0,0.0,0.0,0.0,0.0,-0.0011111111111111111,-0.0011111111111111111,-0.16,1.84,9.65,11.672291584
1671151805.7620609,0,-177.7899169921875,195.17333984375,35.25732421875,1,-73.92266845703125,116.7431640625,-336.44580078125,2,-21.03057861328125,117.37890625,-338.057373046875,3,103.9385986328125,196.2333984375,24.509765625,0.0,0.0,0.0,0.0,0.0,-0.0011111111111111111,-0.0011111111111111111,-0.16,1.84,9.65,11.672291584
1671151805.7720814,0,-177.8397216796875,195.312255859375,35.284423828125,1,-73.8922119140625,116.751220703125,-336.43212890625,2,-21.05999755859375,117.3857421875,-338.07958984375,3,103.9388427734375,196.231689453125,24.4931640625,0.0,0.0,0.0,0.0,0.0022222222222222222,-0.0,-0.0022222222222222222,-0.16,1.84,9.69,11.688759264
1671151805.7820647,0,-177.77899169921875,195.324951171875,35.274169921875,1,-73.8387451171875,116.74365234375,-336.413330078125,2,-21.05389404296875,117.380126953125,-338.062744140625,3,103.9913330078125,196.1904296875,24.541015625,0.0,0.0,0.0,0.0,0.0022222222222222222,-0.0,-0.0022222222222222222,-0.16,1.84,9.69,11.688759264
1671151805.792168,0,-177.80743408203125,195.2890625,35.297119140625,1,-73.923583984375,116.763916015625,-336.423095703125,2,-21.0504150390625,117.380615234375,-338.066162109375,3,103.9346923828125,196.14892578125,24.521484375,0.0,0.0,0.0,0.0,0.0022222222222222222,-0.0,-0.0022222222222222222,-0.16,1.84,9.69,11.688759264
1671151805.8020608,0,-177.74993896484375,195.2802734375,35.2822265625,1,-73.9212646484375,116.76025390625,-336.423828125,2,-21.0291748046875,117.328857421875,-338.104248046875,3,103.94580078125,196.141845703125,24.5146484375,0.0,0.0,0.0,0.0,0.0022222222222222222,-0.0,-0.0022222222222222222,-0.16,1.84,9.69,11.688759264
1671151805.8120778,0,-177.785400390625,195.28857421875,35.271484375,1,-73.94085693359375,116.718505859375,-336.41455078125,2,-21.08892822265625,117.38134765625,-338.101318359375,3,103.9345703125,196.150634765625,24.50439453125,0.0,0.0,0.0,0.0,-0.0022222222222222222,0.0011111111111111111,-0.0011111111111111111,-0.19,1.85,9.7,11.682172192000001
1671151805.8220613,0,-177.79071044921875,195.280029296875,35.25439453125,1,-73.89752197265625,116.726806640625,-336.4130859375,2,-21.0096435546875,117.35302734375,-338.033935546875,3,103.9371337890625,196.2265625,24.539306640625,0.0,0.0,0.0,0.0,-0.0022222222222222222,0.0011111111111111111,-0.0011111111111111111,-0.19,1.85,9.7,11.682172192000001
1671151805.8320272,0,-177.8026123046875,195.26171875,35.29931640625,1,-73.86474609375,116.74853515625,-336.474853515625,2,-21.0133056640625,117.367431640625,-338.058837890625,3,103.926025390625,196.22314453125,24.516357421875,0.0,0.0,0.0,0.0,-0.0022222222222222222,0.0011111111111111111,-0.0011111111111111111,-0.19,1.85,9.7,11.682172192000001
1671151805.8421621,0,-177.764404296875,195.266845703125,35.2216796875,1,-73.88360595703125,116.744384765625,-336.45458984375,2,-21.04547119140625,117.38232421875,-338.087890625,3,103.89599609375,196.17724609375,24.497314453125,0.0,0.0,0.0,0.0,-0.0022222222222222222,0.0011111111111111111,-0.0011111111111111111,-0.19,1.85,9.7,11.682172192000001
1671151805.8520691,0,-177.75408935546875,195.36083984375,35.211181640625,1,-73.91925048828125,116.728515625,-336.399169921875,2,-21.06927490234375,117.36865234375,-338.10009765625,3,103.922607421875,196.208251953125,24.478759765625,0.0,0.0,0.0,0.0,-0.0022222222222222222,0.0011111111111111111,-0.0011111111111111111,-0.19,1.85,9.7,11.682172192000001
1671151805.8620648,0,-177.8189697265625,195.144287109375,35.230712890625,1,-73.9520263671875,116.750732421875,-336.40283203125,2,-21.0791015625,117.38720703125,-338.09130859375,3,103.948486328125,196.21044921875,24.558349609375,0.0,0.0,0.0,0.0,-0.28444444444444444,0.0022222222222222222,-0.0011111111111111111,-0.17,1.85,9.71,11.678878656
1671151805.8720648,0,-177.83843994140625,195.19189453125,35.297607421875,1,-73.899169921875,116.760986328125,-336.432861328125,2,-21.06732177734375,117.36962890625,-338.053955078125,3,104.021728515625,196.208984375,24.525146484375,0.0,0.0,0.0,0.0,-0.28444444444444444,0.0022222222222222222,-0.0011111111111111111,-0.17,1.85,9.71,11.678878656
1671151805.8820603,0,-177.84625244140625,195.252197265625,35.2607421875,1,-73.9310302734375,116.74755859375,-336.43359375,2,-21.07086181640625,117.366455078125,-338.054443359375,3,104.0084228515625,196.19775390625,24.51513671875,0.0,0.0,0.0,0.0,-0.28444444444444444,0.0022222222222222222,-0.0011111111111111111,-0.17,1.85,9.71,11.678878656
1671151805.8921957,0,-177.82708740234375,195.270263671875,35.26025390625,1,-73.89764404296875,116.739501953125,-336.45263671875,2,-21.04278564453125,117.38818359375,-338.0517578125,3,103.903564453125,196.171142578125,24.503662109375,0.0,0.0,0.0,0.0,-0.28444444444444444,0.0022222222222222222,-0.0011111111111111111,-0.17,1.85,9.71,11.678878656
1671151805.902067,0,-177.84454345703125,195.237548828125,35.26806640625,1,-73.88800048828125,116.73779296875,-336.443603515625,2,-21.06591796875,117.361572265625,-338.1005859375,3,103.9378662109375,196.171875,24.50341796875,0.0,0.0,0.0,0.0,-0.28444444444444444,0.0022222222222222222,-0.0011111111111111111,-0.17,1.85,9.71,11.678878656
1671151805.9120643,0,-177.86480712890625,195.21044921875,35.252685546875,1,-73.912353515625,116.787841796875,-336.408447265625,2,-21.03741455078125,117.394775390625,-338.0791015625,3,104.058837890625,196.217041015625,24.47509765625,0.0,0.0,0.0,0.0,-0.28444444444444444,0.0022222222222222222,-0.0011111111111111111,-0.17,1.85,9.71,11.678878656
1671151805.9220676,0,-177.8157958984375,195.238525390625,35.27783203125,1,-73.93646240234375,116.78515625,-336.44580078125,2,-21.066162109375,117.39501953125,-338.091064453125,3,103.9532470703125,196.219482421875,24.525634765625,0.0,0.0,1.3,1.3,0.0,-0.2833333333333333,-0.0011111111111111111,-0.19,1.83,9.66,11.675585120000001
1671151805.9320676,0,-177.78521728515625,195.2744140625,35.229736328125,1,-73.92938232421875,116.73828125,-336.387939453125,2,-21.0771484375,117.338134765625,-338.074462890625,3,103.99365234375,196.211669921875,24.521484375,0.0,0.0,1.3,1.3,0.0,-0.2833333333333333,-0.0011111111111111111,-0.19,1.83,9.66,11.675585120000001
1671151805.9421842,0,-177.8399658203125,195.292236328125,35.2666015625,1,-73.9169921875,116.75634765625,-336.436767578125,2,-21.0728759765625,117.370849609375,-338.0703125,3,103.96142578125,196.144775390625,24.512939453125,0.0,0.0,1.3,1.3,0.0,-0.2833333333333333,-0.0011111111111111111,-0.19,1.83,9.66,11.675585120000001
1671151805.9520674,0,-177.86883544921875,195.23193359375,35.27783203125,1,-73.938232421875,116.75634765625,-336.4423828125,2,-21.078857421875,117.3369140625,-338.060302734375,3,103.9736328125,196.134521484375,24.5302734375,0.0,0.0,1.3,1.3,0.0,-0.2833333333333333,-0.0011111111111111111,-0.19,1.83,9.66,11.675585120000001
1671151805.9620812,0,-177.87957763671875,195.241455078125,35.2744140625,1,-73.96502685546875,116.723876953125,-336.405517578125,2,-21.08349609375,117.33544921875,-338.061279296875,3,103.962890625,196.16845703125,24.51123046875,4.79632466196915e-05,4.79632466196915e-05,31.2,31.2,0.0,0.0022222222222222222,-0.0,-0.15,1.84,9.7,11.665704512
1671151805.9720526,0,-177.8677978515625,195.336181640625,35.21484375,1,-73.962158203125,116.76171875,-336.38818359375,2,-21.09490966796875,117.38916015625,-338.09716796875,3,103.9488525390625,196.2490234375,24.492919921875,4.79632466196915e-05,4.79632466196915e-05,31.2,31.2,0.0,0.0022222222222222222,-0.0,-0.15,1.84,9.7,11.665704512
1671151805.9820492,0,-177.7965087890625,195.365234375,35.174072265625,1,-73.92913818359375,116.71435546875,-336.31298828125,2,-21.1546630859375,117.399169921875,-338.017578125,3,103.9803466796875,196.2900390625,24.398681640625,4.79632466196915e-05,4.79632466196915e-05,31.2,31.2,0.0,0.0022222222222222222,-0.0,-0.15,1.84,9.7,11.665704512
1671151805.99216,0,-177.84210205078125,195.3857421875,35.4677734375,1,-74.10198974609375,116.72216796875,-335.914306640625,2,-21.34539794921875,117.387451171875,-337.661865234375,3,104.026611328125,196.4345703125,24.305419921875,4.79632466196915e-05,4.79632466196915e-05,31.2,31.2,0.0,0.0022222222222222222,-0.0,-0.15,1.84,9.7,11.665704512
1671151806.0020726,0,-177.6134033203125,195.500732421875,36.097412109375,1,-74.27740478515625,116.659912109375,-335.4208984375,2,-21.4947509765625,117.295654296875,-337.166748046875,3,104.0948486328125,196.399658203125,24.792236328125,4.79632466196915e-05,4.79632466196915e-05,31.2,31.2,0.0,0.0022222222222222222,-0.0,-0.15,1.84,9.7,11.665704512
1671151806.0120609,0,-177.49578857421875,195.41064453125,36.866943359375,1,-74.32769775390625,116.664794921875,-334.66015625,2,-21.53985595703125,117.362548828125,-336.490234375,3,104.1917724609375,196.37158203125,25.52001953125,4.79632466196915e-05,4.79632466196915e-05,31.2,31.2,0.0,0.0022222222222222222,-0.0,-0.15,1.84,9.7,11.665704512
1671151806.022062,0,-177.4111328125,195.499755859375,37.907958984375,1,-74.2879638671875,116.643310546875,-333.545166015625,2,-21.52423095703125,117.446044921875,-335.416748046875,3,104.232666015625,196.3974609375,26.589599609375,0.008441531405065704,0.022302909678156544,57.4,57.4,0.0011111111111111111,-0.15,0.011111111111111112,4.75,1.93,9.21,11.662410976
1671151806.0320745,0,-177.43194580078125,195.4736328125,39.1650390625,1,-74.24444580078125,116.644775390625,-331.978515625,2,-21.40472412109375,117.522216796875,-334.153564453125,3,104.262939453125,196.267822265625,27.958984375,0.008441531405065704,0.022302909678156544,57.4,57.4,0.0011111111111111111,-0.15,0.011111111111111112,4.75,1.93,9.21,11.662410976
1671151806.0421317,0,-177.3631591796875,195.49365234375,40.569580078125,1,-74.18133544921875,116.630126953125,-330.684326171875,2,-21.28839111328125,117.5810546875,-332.801025390625,3,104.2421875,196.4130859375,29.324462890625,0.008441531405065704,0.022302909678156544,57.4,57.4,0.0011111111111111111,-0.15,0.011111111111111112,4.75,1.93,9.21,11.662410976
1671151806.052064,0,-177.37646484375,195.35009765625,42.313232421875,1,-74.0845947265625,116.641357421875,-328.96533203125,2,-21.20172119140625,117.46142578125,-330.966796875,3,104.2408447265625,196.30126953125,31.185302734375,0.008441531405065704,0.022302909678156544,57.4,57.4,0.0011111111111111111,-0.15,0.011111111111111112,4.75,1.93,9.21,11.662410976
1671151806.0620575,0,-177.39715576171875,195.211669921875,44.063232421875,1,-73.92523193359375,116.56005859375,-327.066162109375,2,-20.74505615234375,117.573486328125,-329.2138671875,3,104.4180908203125,196.27490234375,33.157470703125,0.008441531405065704,0.022302909678156544,57.4,57.4,0.0011111111111111111,-0.15,0.011111111111111112,4.75,1.93,9.21,11.662410976
1671151806.0720625,0,-177.30120849609375,195.412109375,46.2275390625,1,-73.5947265625,116.584716796875,-324.81591796875,2,-20.396240234375,117.526611328125,-326.902099609375,3,104.3792724609375,196.35009765625,35.5517578125,0.09463148558065132,0.10187393582022473,59.7,59.7,-0.005555555555555556,-0.06333333333333334,0.0077777777777777776,3.19,1.82,8.94,11.563604896000001
1671151806.082074,0,-177.2967529296875,195.305419921875,48.7900390625,1,-73.14385986328125,116.452392578125,-322.1376953125,2,-19.9097900390625,117.599853515625,-324.34521484375,3,104.3773193359375,196.385498046875,38.411865234375,0.09463148558065132,0.10187393582022473,59.7,59.7,-0.005555555555555556,-0.06333333333333334,0.0077777777777777776,3.19,1.82,8.94,11.563604896000001
1671151806.0922232,0,-177.23681640625,195.497314453125,51.17919921875,1,-72.66259765625,116.215087890625,-319.42578125,2,-19.54052734375,117.52978515625,-321.583740234375,3,104.3121337890625,196.441162109375,41.18212890625,0.09463148558065132,0.10187393582022473,59.7,59.7,-0.005555555555555556,-0.06333333333333334,0.0077777777777777776,3.19,1.82,8.94,11.563604896000001
1671151806.1021109,0,-177.29876708984375,195.536376953125,54.227783203125,1,-72.0936279296875,116.131591796875,-316.28857421875,2,-19.01727294921875,117.535888671875,-318.3974609375,3,104.336181640625,196.577392578125,44.579833984375,0.09463148558065132,0.10187393582022473,59.7,59.7,-0.005555555555555556,-0.06333333333333334,0.0077777777777777776,3.19,1.82,8.94,11.563604896000001
1671151806.1120648,0,-177.26934814453125,195.1572265625,57.249267578125,1,-71.4344482421875,116.198974609375,-313.335205078125,2,-18.32598876953125,117.55322265625,-315.324951171875,3,104.370849609375,196.484130859375,47.9345703125,0.2604404291449248,0.2749253296240716,60.4,60.4,0.04666666666666667,-0.09,-0.07555555555555556,5.95,1.96,8.99,11.589953184
1671151806.1220312,0,-177.372314453125,195.26123046875,60.715087890625,1,-71.10662841796875,115.801513671875,-309.541015625,2,-18.02239990234375,117.3984375,-311.536376953125,3,104.4532470703125,196.381591796875,51.8232421875,0.2604404291449248,0.2749253296240716,60.4,60.4,0.04666666666666667,-0.09,-0.07555555555555556,5.95,1.96,8.99,11.589953184
1671151806.132054,0,-177.1805419921875,195.34033203125,64.1142578125,1,-70.65997314453125,115.671142578125,-306.123779296875,2,-17.41009521484375,117.190185546875,-308.08447265625,3,104.60693359375,196.264892578125,55.468017578125,0.2604404291449248,0.2749253296240716,60.4,60.4,0.04666666666666667,-0.09,-0.07555555555555556,5.95,1.96,8.99,11.589953184
1671151806.14213,0,-176.99261474609375,195.20654296875,68.01953125,1,-70.56500244140625,115.918212890625,-302.338134765625,2,-17.0908203125,117.021728515625,-304.35546875,3,104.8359375,196.205810546875,59.352783203125,0.2604404291449248,0.2749253296240716,60.4,60.4,0.04666666666666667,-0.09,-0.07555555555555556,5.95,1.96,8.99,11.589953184
1671151806.1520798,0,-176.883544921875,195.054931640625,72.25830078125,1,-70.590576171875,115.9677734375,-298.3896484375,2,-17.312255859375,116.831298828125,-300.080322265625,3,104.873046875,196.319580078125,63.273193359375,0.2604404291449248,0.2749253296240716,60.4,60.4,0.04666666666666667,-0.09,-0.07555555555555556,5.95,1.96,8.99,11.589953184
1671151806.162059,0,-176.8321533203125,195.05810546875,75.956787109375,1,-70.56866455078125,115.696533203125,-294.721435546875,2,-17.453369140625,116.841796875,-296.389404296875,3,104.9847412109375,196.200439453125,66.98779296875,0.2604404291449248,0.2749253296240716,60.4,60.4,0.04666666666666667,-0.09,-0.07555555555555556,5.95,1.96,8.99,11.589953184
1671151806.1721692,0,-176.52984619140625,195.18994140625,80.1279296875,1,-70.64434814453125,115.77685546875,-290.577880859375,2,-17.47552490234375,116.953125,-292.251708984375,3,105.1573486328125,196.2060546875,71.1044921875,0.4709990818053705,0.48423693787240535,63.4,63.4,-0.03666666666666667,0.0077777777777777776,-0.15444444444444444,2.48,2.82,8.7,11.632769152
1671151806.1820679,0,-176.39910888671875,195.16552734375,84.005615234375,1,-70.50390625,115.600830078125,-286.736083984375,2,-17.35040283203125,116.846435546875,-288.48193359375,3,105.4359130859375,196.079833984375,74.8720703125,0.4709990818053705,0.48423693787240535,63.4,63.4,-0.03666666666666667,0.0077777777777777776,-0.15444444444444444,2.48,2.82,8.7,11.632769152
1671151806.1921701,0,-176.23150634765625,195.187744140625,88.275634765625,1,-70.576904296875,115.711181640625,-282.381103515625,2,-17.23797607421875,117.021484375,-284.257568359375,3,105.713623046875,196.3447265625,78.90478515625,0.4709990818053705,0.48423693787240535,63.4,63.4,-0.03666666666666667,0.0077777777777777776,-0.15444444444444444,2.48,2.82,8.7,11.632769152
1671151806.2020695,0,-176.1329345703125,195.0751953125,92.74560546875,1,-70.7325439453125,115.73486328125,-277.723876953125,2,-17.25531005859375,117.12939453125,-279.8935546875,3,105.957275390625,196.483642578125,83.280517578125,0.4709990818053705,0.48423693787240535,63.4,63.4,-0.03666666666666667,0.0077777777777777776,-0.15444444444444444,2.48,2.82,8.7,11.632769152
1671151806.2120576,0,-175.9962158203125,194.890625,96.71337890625,1,-70.73095703125,115.466064453125,-273.812744140625,2,-17.4603271484375,117.15234375,-275.945556640625,3,105.7777099609375,196.195556640625,87.22119140625,0.4709990818053705,0.48423693787240535,63.4,63.4,-0.03666666666666667,0.0077777777777777776,-0.15444444444444444,2.48,2.82,8.7,11.632769152
1671151806.222063,0,-175.66790771484375,195.07080078125,101.340087890625,1,-70.75323486328125,115.49951171875,-269.188232421875,2,-17.23675537109375,117.081298828125,-271.423095703125,3,106.1490478515625,196.056396484375,91.7451171875,0.6961865246848221,0.6932607666410209,63.4,63.4,-0.0011111111111111111,-0.015555555555555555,0.028888888888888888,-1.73,0.13,13.89,11.613007936
1671151806.232089,0,-175.531982421875,194.931884765625,106.084716796875,1,-70.56915283203125,115.4443359375,-264.72607421875,2,-17.3477783203125,117.006591796875,-267.00927734375,3,106.4503173828125,196.00244140625,96.265869140625,0.6961865246848221,0.6932607666410209,63.4,63.4,-0.0011111111111111111,-0.015555555555555555,0.028888888888888888,-1.73,0.13,13.89,11.613007936
1671151806.2421849,0,-175.36322021484375,194.950439453125,110.179931640625,1,-70.5599365234375,115.217529296875,-260.5517578125,2,-17.1483154296875,116.87451171875,-262.8974609375,3,106.5941162109375,196.130126953125,100.154541015625,0.6961865246848221,0.6932607666410209,63.4,63.4,-0.0011111111111111111,-0.015555555555555555,0.028888888888888888,-1.73,0.13,13.89,11.613007936
1671151806.252061,0,-175.17901611328125,194.93994140625,114.69189453125,1,-70.57440185546875,115.273193359375,-256.134521484375,2,-17.18841552734375,116.6826171875,-258.45361328125,3,106.90478515625,196.3173828125,104.6669921875,0.6961865246848221,0.6932607666410209,63.4,63.4,-0.0011111111111111111,-0.015555555555555555,0.028888888888888888,-1.73,0.13,13.89,11.613007936
1671151806.2620928,0,-175.371826171875,194.855224609375,118.861572265625,1,-70.43475341796875,115.175048828125,-251.979248046875,2,-17.070556640625,116.77197265625,-254.392578125,3,107.0411376953125,196.367431640625,108.72802734375,0.9355231253170827,0.9064573978655496,64.2,64.2,0.006666666666666667,0.044444444444444446,0.03,-0.75,0.36,11.18,11.642649760000001
1671151806.2720547,0,-174.8994140625,195.069091796875,123.318603515625,1,-70.4949951171875,115.20166015625,-247.52392578125,2,-16.969970703125,116.728759765625,-249.832763671875,3,107.064453125,196.184814453125,113.131591796875,0.9355231253170827,0.9064573978655496,64.2,64.2,0.006666666666666667,0.044444444444444446,0.03,-0.75,0.36,11.18,11.642649760000001
1671151806.2820542,0,-174.5792236328125,195.0673828125,127.39306640625,1,-70.53271484375,115.131591796875,-243.416259765625,2,-17.02215576171875,116.6796875,-245.968017578125,3,107.29052734375,196.1943359375,117.052978515625,0.9355231253170827,0.9064573978655496,64.2,64.2,0.006666666666666667,0.044444444444444446,0.03,-0.75,0.36,11.18,11.642649760000001
1671151806.2921288,0,-174.4154052734375,195.058349609375,132.05224609375,1,-70.44647216796875,115.019775390625,-238.90771484375,2,-17.1158447265625,116.61962890625,-241.40771484375,3,107.403076171875,196.18115234375,121.439208984375,0.9355231253170827,0.9064573978655496,64.2,64.2,0.006666666666666667,0.044444444444444446,0.03,-0.75,0.36,11.18,11.642649760000001
1671151806.3020613,0,-174.276611328125,195.074462890625,136.683349609375,1,-70.80645751953125,115.009765625,-234.31494140625,2,-17.37890625,116.67724609375,-236.39697265625,3,107.4873046875,196.11572265625,125.913330078125,0.9355231253170827,0.9064573978655496,64.2,64.2,0.006666666666666667,0.044444444444444446,0.03,-0.75,0.36,11.18,11.642649760000001
1671151806.3120618,0,-173.96466064453125,195.065185546875,140.937255859375,1,-70.7139892578125,114.956298828125,-230.135009765625,2,-17.2989501953125,116.56201171875,-232.615966796875,3,107.7557373046875,196.20751953125,129.943115234375,1.1894405529217296,1.156202023014283,64.2,64.2,-0.025555555555555557,-0.034444444444444444,0.052222222222222225,-0.2,1.65,9.59,11.678878656
1671151806.322066,0,-173.8233642578125,195.0517578125,145.75537109375,1,-70.7154541015625,114.95068359375,-225.662353515625,2,-17.14935302734375,116.58544921875,-228.090087890625,3,108.057373046875,196.232421875,134.534423828125,1.1894405529217296,1.156202023014283,64.2,64.2,-0.025555555555555557,-0.034444444444444444,0.052222222222222225,-0.2,1.65,9.59,11.678878656
1671151806.3320885,0,-173.43621826171875,195.1240234375,150.276123046875,1,-70.73583984375,114.89990234375,-220.82373046875,2,-17.243408203125,116.578125,-223.5322265625,3,108.1729736328125,196.231689453125,139.01220703125,1.1894405529217296,1.156202023014283,64.2,64.2,-0.025555555555555557,-0.034444444444444444,0.052222222222222225,-0.2,1.65,9.59,11.678878656
1671151806.3421865,0,-173.36627197265625,195.1298828125,154.614501953125,1,-70.606201171875,115.126220703125,-216.85888671875,2,-17.2640380859375,116.5478515625,-219.41259765625,3,108.28564453125,196.181884765625,143.03369140625,1.1894405529217296,1.156202023014283,64.2,64.2,-0.025555555555555557,-0.034444444444444444,0.052222222222222225,-0.2,1.65,9.59,11.678878656
1671151806.3520634,0,-173.04864501953125,195.2490234375,159.06103515625,1,-70.7010498046875,115.0859375,-212.316650390625,2,-17.209716796875,116.40966796875,-214.907958984375,3,108.8045654296875,196.2373046875,147.50390625,1.1894405529217296,1.156202023014283,64.2,64.2,-0.025555555555555557,-0.034444444444444444,0.052222222222222225,-0.2,1.65,9.59,11.678878656
1671151806.3620775,0,-172.73974609375,195.394287109375,163.749267578125,1,-70.56317138671875,114.879150390625,-207.54150390625,2,-17.10369873046875,116.401123046875,-210.23095703125,3,109.13916015625,196.32568359375,152.023681640625,1.1894405529217296,1.156202023014283,64.2,64.2,-0.025555555555555557,-0.034444444444444444,0.052222222222222225,-0.2,1.65,9.59,11.678878656
1671151806.3720663,0,-172.464111328125,195.29931640625,167.888427734375,1,-70.63720703125,114.99609375,-203.477783203125,2,-17.1148681640625,116.460693359375,-206.23681640625,3,109.3985595703125,196.52490234375,155.96826171875,1.4448928044182063,1.4389933250839844,64.9,64.9,-0.0033333333333333335,-0.017777777777777778,0.06555555555555556,-1.46,2.4,9.55,11.622888544
1671151806.3820648,0,-172.30950927734375,195.385009765625,172.585693359375,1,-70.6483154296875,115.037109375,-198.871826171875,2,-17.22613525390625,116.4150390625,-201.50341796875,3,109.66796875,196.652099609375,160.5556640625,1.4448928044182063,1.4389933250839844,64.9,64.9,-0.0033333333333333335,-0.017777777777777778,0.06555555555555556,-1.46,2.4,9.55,11.622888544
1671151806.392183,0,-172.0908203125,195.53369140625,176.7763671875,1,-70.404296875,115.177734375,-194.9482421875,2,-17.16534423828125,116.377685546875,-197.429443359375,3,109.8494873046875,196.7626953125,164.529541015625,1.4448928044182063,1.4389933250839844,64.9,64.9,-0.0033333333333333335,-0.017777777777777778,0.06555555555555556,-1.46,2.4,9.55,11.622888544
1671151806.4021707,0,-171.8975830078125,195.397705078125,181.52197265625,1,-70.461669921875,115.17333984375,-190.26708984375,2,-17.19122314453125,116.320068359375,-192.927490234375,3,110.119140625,196.7802734375,169.018798828125,1.4448928044182063,1.4389933250839844,64.9,64.9,-0.0033333333333333335,-0.017777777777777778,0.06555555555555556,-1.46,2.4,9.55,11.622888544
1671151806.4121597,0,-171.73834228515625,195.513916015625,185.6455078125,1,-70.374755859375,115.16455078125,-186.2939453125,2,-17.14605712890625,116.250732421875,-188.7822265625,3,110.117431640625,196.786865234375,173.08447265625,1.4448928044182063,1.4389933250839844,64.9,64.9,-0.0033333333333333335,-0.017777777777777778,0.06555555555555556,-1.46,2.4,9.55,11.622888544
1671151806.422148,0,-171.60137939453125,195.46240234375,190.375732421875,1,-70.649658203125,115.3427734375,-181.7255859375,2,-17.1976318359375,116.255615234375,-184.248291015625,3,110.1129150390625,196.637939453125,177.483642578125,1.4448928044182063,1.4389933250839844,64.9,64.9,-0.0033333333333333335,-0.017777777777777778,0.06555555555555556,-1.46,2.4,9.55,11.622888544
1671151806.4320817,0,-171.510498046875,195.387939453125,195.06689453125,1,-70.51971435546875,115.32861328125,-177.0634765625,2,-17.191650390625,116.3681640625,-179.639892578125,3,110.262451171875,196.617431640625,182.086669921875,1.7205375827415734,1.6737254540407547,69.4,69.4,0.024444444444444446,0.2777777777777778,0.06111111111111111,3.4,2.54,10.38,11.652530368
1671151806.4421678,0,-170.991455078125,195.5830078125,199.13916015625,1,-70.5133056640625,115.2373046875,-172.887451171875,2,-17.2152099609375,116.363525390625,-174.99560546875,3,110.525146484375,196.42919921875,186.165771484375,1.7205375827415734,1.6737254540407547,69.4,69.4,0.024444444444444446,0.2777777777777778,0.06111111111111111,3.4,2.54,10.38,11.652530368
1671151806.452064,0,-170.7593994140625,195.396240234375,204.070556640625,1,-70.30914306640625,115.197509765625,-168.03759765625,2,-17.09625244140625,116.241455078125,-170.593017578125,3,110.836669921875,196.300537109375,190.863037109375,1.7205375827415734,1.6737254540407547,69.4,69.4,0.024444444444444446,0.2777777777777778,0.06111111111111111,3.4,2.54,10.38,11.652530368
1671151806.4620597,0,-170.3670654296875,195.4775390625,208.37744140625,1,-70.356201171875,115.027099609375,-163.90478515625,2,-16.9501953125,116.137939453125,-166.38232421875,3,111.161865234375,196.2021484375,195.16015625,1.9556054544246815,1.8883130194172544,70.9,70.9,0.035555555555555556,-0.06444444444444444,0.06333333333333334,1.62,0.56,9.89,11.632769152
1671151806.4721441,0,-169.8905029296875,195.663330078125,213.41259765625,1,-70.347412109375,115.157958984375,-158.73583984375,2,-16.877685546875,116.16259765625,-161.42919921875,3,111.4708251953125,196.208251953125,200.0322265625,1.9556054544246815,1.8883130194172544,70.9,70.9,0.035555555555555556,-0.06444444444444444,0.06333333333333334,1.62,0.56,9.89,11.632769152
1671151806.4821625,0,-169.96893310546875,195.3193359375,218.596923828125,1,-70.1759033203125,115.168212890625,-153.928466796875,2,-16.85150146484375,116.123779296875,-156.633056640625,3,111.8106689453125,196.2939453125,204.74072265625,1.9556054544246815,1.8883130194172544,70.9,70.9,0.035555555555555556,-0.06444444444444444,0.06333333333333334,1.62,0.56,9.89,11.632769152
1671151806.4921625,0,-169.29351806640625,195.6220703125,222.93408203125,1,-70.15704345703125,115.277587890625,-149.4052734375,2,-16.8800048828125,116.214599609375,-152.16748046875,3,112.051025390625,196.225341796875,209.029052734375,1.9556054544246815,1.8883130194172544,70.9,70.9,0.035555555555555556,-0.06444444444444444,0.06333333333333334,1.62,0.56,9.89,11.632769152
1671151806.502171,0,-169.06341552734375,195.663818359375,227.99609375,1,-70.0780029296875,115.055908203125,-144.328125,2,-16.8182373046875,116.073486328125,-147.144287109375,3,112.2550048828125,196.142578125,213.931396484375,1.9556054544246815,1.8883130194172544,70.9,70.9,0.035555555555555556,-0.06444444444444444,0.06333333333333334,1.62,0.56,9.89,11.632769152
1671151806.5121562,0,-168.940185546875,195.822509765625,232.7041015625,1,-70.108154296875,115.065185546875,-139.927734375,2,-16.813720703125,116.090087890625,-142.71484375,3,112.6705322265625,196.175048828125,218.41748046875,1.9556054544246815,1.8883130194172544,70.9,70.9,0.035555555555555556,-0.06444444444444444,0.06333333333333334,1.62,0.56,9.89,11.632769152
1671151806.5220742,0,-168.74737548828125,196.157958984375,237.844970703125,1,-69.9642333984375,115.048095703125,-134.713134765625,2,-16.66619873046875,116.087158203125,-137.657470703125,3,112.9964599609375,196.237060546875,223.375,2.2232883338091796,2.1472665879169686,84.4,84.4,-0.057777777777777775,-0.016666666666666666,0.04888888888888889,-0.97,2.34,12.24,11.622888544
1671151806.5320601,0,-168.67578125,195.771484375,243.0625,1,-70.0728759765625,115.086669921875,-129.659423828125,2,-16.72601318359375,116.103759765625,-132.5986328125,3,113.1900634765625,196.294921875,228.2705078125,2.2232883338091796,2.1472665879169686,84.4,84.4,-0.057777777777777775,-0.016666666666666666,0.04888888888888889,-0.97,2.34,12.24,11.622888544
1671151806.5421715,0,-167.893798828125,196.0078125,247.700927734375,1,-70.05657958984375,115.11181640625,-124.772216796875,2,-16.689697265625,116.16796875,-127.845703125,3,113.5484619140625,196.2529296875,232.758056640625,2.2232883338091796,2.1472665879169686,84.4,84.4,-0.057777777777777775,-0.016666666666666666,0.04888888888888889,-0.97,2.34,12.24,11.622888544
1671151806.552078,0,-167.6602783203125,195.90625,253.178955078125,1,-69.76849365234375,115.10986328125,-119.48193359375,2,-16.650146484375,116.09765625,-122.4345703125,3,113.884765625,196.1708984375,238.036376953125,2.2232883338091796,2.1472665879169686,84.4,84.4,-0.057777777777777775,-0.016666666666666666,0.04888888888888889,-0.97,2.34,12.24,11.622888544
1671151806.5620875,0,-167.60589599609375,195.9951171875,258.36474609375,1,-70.02496337890625,115.055908203125,-114.21533203125,2,-16.65765380859375,116.1201171875,-117.374267578125,3,114.2381591796875,196.187255859375,242.95068359375,2.507854276003809,2.4086662819942872,90.0,90.0,-0.005555555555555556,-0.021111111111111112,0.07222222222222222,0.63,1.98,9.44,11.56031136
1671151806.5722215,0,-167.21258544921875,196.341552734375,264.398681640625,1,-69.91265869140625,114.650634765625,-108.200927734375,2,-16.71221923828125,116.159423828125,-111.6328125,3,114.7113037109375,196.1318359375,248.76611328125,2.507854276003809,2.4086662819942872,90.0,90.0,-0.005555555555555556,-0.021111111111111112,0.07222222222222222,0.63,1.98,9.44,11.56031136
1671151806.5821784,0,-166.920654296875,196.2607421875,270.23388671875,1,-70.0360107421875,114.45654296875,-102.236328125,2,-16.74468994140625,116.145751953125,-105.298583984375,3,115.082763671875,196.082763671875,254.403564453125,2.507854276003809,2.4086662819942872,90.0,90.0,-0.005555555555555556,-0.021111111111111112,0.07222222222222222,0.63,1.98,9.44,11.56031136
1671151806.5921612,0,-166.44384765625,196.447998046875,275.923095703125,1,-69.87054443359375,114.55224609375,-96.602294921875,2,-16.6407470703125,116.098388671875,-99.989501953125,3,115.3446044921875,195.9833984375,259.8125,2.507854276003809,2.4086662819942872,90.0,90.0,-0.005555555555555556,-0.021111111111111112,0.07222222222222222,0.63,1.98,9.44,11.56031136
1671151806.602094,0,-165.84442138671875,196.451171875,282.1650390625,1,-69.86798095703125,114.419921875,-90.853759765625,2,-16.53668212890625,115.96044921875,-94.046630859375,3,115.8692626953125,195.85693359375,265.802001953125,2.507854276003809,2.4086662819942872,90.0,90.0,-0.005555555555555556,-0.021111111111111112,0.07222222222222222,0.63,1.98,9.44,11.56031136
1671151806.6120946,0,-165.4896240234375,196.42431640625,288.7119140625,1,-69.83575439453125,114.419921875,-84.02880859375,2,-16.49395751953125,116.000244140625,-87.78515625,3,116.320068359375,196.0224609375,272.052490234375,2.8084399425694158,2.688915531993145,90.0,90.0,-0.024444444444444446,0.017777777777777778,0.08333333333333333,-3.24,2.88,7.59,11.580072576000001
1671151806.6221027,0,-165.405029296875,196.111572265625,294.85400390625,1,-69.8056640625,114.411376953125,-78.196533203125,2,-16.4915771484375,115.865234375,-82.0107421875,3,116.6435546875,196.000244140625,277.7470703125,2.8084399425694158,2.688915531993145,90.0,90.0,-0.024444444444444446,0.017777777777777778,0.08333333333333333,-3.24,2.88,7.59,11.580072576000001
1671151806.6321568,0,-165.07598876953125,196.03466796875,300.6806640625,1,-69.8392333984375,114.27099609375,-72.319580078125,2,-16.43328857421875,115.72607421875,-76.162353515625,3,117.0792236328125,195.932861328125,283.40673828125,2.8084399425694158,2.688915531993145,90.0,90.0,-0.024444444444444446,0.017777777777777778,0.08333333333333333,-3.24,2.88,7.59,11.580072576000001
1671151806.6421301,0,-164.6368408203125,195.8349609375,307.38232421875,1,-69.69171142578125,114.25537109375,-65.99169921875,2,-16.39697265625,115.657470703125,-69.778076171875,3,117.579833984375,195.84375,289.6806640625,2.8084399425694158,2.688915531993145,90.0,90.0,-0.024444444444444446,0.017777777777777778,0.08333333333333333,-3.24,2.88,7.59,11.580072576000001
1671151806.6521091,0,-163.7509765625,196.273193359375,313.77978515625,1,-69.7213134765625,114.19384765625,-59.439697265625,2,-16.4197998046875,115.5029296875,-63.3623046875,3,118.0867919921875,195.795654296875,295.838623046875,2.8084399425694158,2.688915531993145,90.0,90.0,-0.024444444444444446,0.017777777777777778,0.08333333333333333,-3.24,2.88,7.59,11.580072576000001
1671151806.6621008,0,-163.39129638671875,196.47509765625,319.77392578125,1,-69.68377685546875,114.468505859375,-53.45751953125,2,-16.404296875,115.883544921875,-57.48095703125,3,118.4976806640625,195.9423828125,301.611328125,2.8084399425694158,2.688915531993145,90.0,90.0,-0.024444444444444446,0.017777777777777778,0.08333333333333333,-3.24,2.88,7.59,11.580072576000001
1671151806.67207,0,-162.75030517578125,196.48583984375,326.35693359375,1,-69.846435546875,114.05615234375,-47.102294921875,2,-16.42010498046875,115.412109375,-51.16650390625,3,118.91064453125,195.81298828125,307.80029296875,3.160106466784994,3.0393350117966107,90.0,90.0,-0.27444444444444444,0.023333333333333334,0.09777777777777778,0.76,3.14,8.93,11.619595008000001
1671151806.6820424,0,-162.34722900390625,196.19873046875,333.15380859375,1,-69.79913330078125,114.15380859375,-40.427490234375,2,-16.42608642578125,115.528564453125,-44.63720703125,3,119.345458984375,195.898681640625,314.2880859375,3.160106466784994,3.0393350117966107,90.0,90.0,-0.27444444444444444,0.023333333333333334,0.09777777777777778,0.76,3.14,8.93,11.619595008000001
1671151806.6920493,0,-161.99114990234375,196.1494140625,339.157470703125,1,-69.8660888671875,114.12646484375,-34.522216796875,2,-16.46563720703125,115.52392578125,-38.77392578125,3,119.7340087890625,195.748046875,319.909423828125,3.160106466784994,3.0393350117966107,90.0,90.0,-0.27444444444444444,0.023333333333333334,0.09777777777777778,0.76,3.14,8.93,11.619595008000001
1671151806.702086,0,-161.46160888671875,196.2587890625,345.866943359375,1,-69.79742431640625,113.923095703125,-27.766845703125,2,-16.4190673828125,115.405517578125,-32.224365234375,3,120.2528076171875,195.81640625,326.262939453125,3.160106466784994,3.0393350117966107,90.0,90.0,-0.27444444444444444,0.023333333333333334,0.09777777777777778,0.76,3.14,8.93,11.619595008000001
1671151806.7120798,0,-160.87127685546875,196.250244140625,352.02099609375,1,-69.739990234375,114.102783203125,-22.03662109375,2,-16.33184814453125,115.413330078125,-26.27392578125,3,120.8092041015625,195.82177734375,332.014892578125,3.513163925152543,3.3469712756153123,90.0,90.0,-0.043333333333333335,0.07888888888888888,0.12555555555555556,3.75,0.91,8.84,11.632769152
1671151806.7221258,0,-160.52288818359375,196.377685546875,358.63671875,1,-69.65655517578125,113.96533203125,-15.395263671875,2,-16.2364501953125,115.3857421875,-19.834716796875,3,121.3330078125,195.879150390625,338.31396484375,3.513163925152543,3.3469712756153123,90.0,90.0,-0.043333333333333335,0.07888888888888888,0.12555555555555556,3.75,0.91,8.84,11.632769152
1671151806.7320733,0,-160.22760009765625,195.998046875,364.798583984375,1,-69.56011962890625,113.947998046875,-9.4990234375,2,-16.16741943359375,115.304931640625,-14.0087890625,3,121.80859375,195.851806640625,344.021240234375,3.513163925152543,3.3469712756153123,90.0,90.0,-0.043333333333333335,0.07888888888888888,0.12555555555555556,3.75,0.91,8.84,11.632769152
1671151806.7421224,0,-159.795166015625,195.76953125,371.598876953125,1,-69.6343994140625,114.007080078125,-3.04541015625,2,-16.19085693359375,115.369873046875,-7.51708984375,3,122.529052734375,195.884521484375,350.333740234375,3.513163925152543,3.3469712756153123,90.0,90.0,-0.043333333333333335,0.07888888888888888,0.12555555555555556,3.75,0.91,8.84,11.632769152
1671151806.7521126,0,-158.86956787109375,196.091064453125,378.124267578125,1,-69.43292236328125,113.900634765625,3.6806640625,2,-16.0810546875,115.251953125,-0.919677734375,3,122.765869140625,195.69921875,356.65966796875,3.513163925152543,3.3469712756153123,90.0,90.0,-0.043333333333333335,0.07888888888888888,0.12555555555555556,3.75,0.91,8.84,11.632769152
1671151806.7620444,0,-158.41131591796875,196.096435546875,384.222412109375,1,-69.49005126953125,113.933837890625,9.6181640625,2,-16.1307373046875,115.326416015625,4.94189453125,3,123.2564697265625,195.78369140625,362.483642578125,3.513163925152543,3.3469712756153123,90.0,90.0,-0.043333333333333335,0.07888888888888888,0.12555555555555556,3.75,0.91,8.84,11.632769152
1671151806.7720807,0,-157.6651611328125,196.04345703125,390.964111328125,1,-69.45989990234375,113.92138671875,16.458984375,2,-16.0247802734375,115.4033203125,11.7744140625,3,123.783935546875,195.86572265625,368.846435546875,3.8767253345298043,3.7483277233288907,90.0,90.0,-0.0022222222222222222,-0.023333333333333334,0.12111111111111111,1.37,1.47,9.67,11.616301472
1671151806.7820964,0,-157.218017578125,196.17431640625,397.191650390625,1,-69.2796630859375,113.984619140625,22.46728515625,2,-15.93243408203125,115.334716796875,17.737060546875,3,124.2960205078125,195.6669921875,374.689697265625,3.8767253345298043,3.7483277233288907,90.0,90.0,-0.0022222222222222222,-0.023333333333333334,0.12111111111111111,1.37,1.47,9.67,11.616301472
1671151806.7921631,0,-156.55230712890625,196.06103515625,403.927001953125,1,-69.13671875,113.969970703125,29.045166015625,2,-15.7227783203125,115.47998046875,24.228515625,3,124.9315185546875,195.70849609375,381.064697265625,3.8767253345298043,3.7483277233288907,90.0,90.0,-0.0022222222222222222,-0.023333333333333334,0.12111111111111111,1.37,1.47,9.67,11.616301472
1671151806.8021185,0,-156.038330078125,196.0224609375,410.72314453125,1,-69.0186767578125,114.17333984375,35.71142578125,2,-15.6923828125,115.283203125,31.06298828125,3,125.4403076171875,195.78076171875,387.427490234375,3.8767253345298043,3.7483277233288907,90.0,90.0,-0.0022222222222222222,-0.023333333333333334,0.12111111111111111,1.37,1.47,9.67,11.616301472
1671151806.8120668,0,-155.5894775390625,195.7333984375,416.8955078125,1,-68.880859375,114.128173828125,41.64111328125,2,-15.465576171875,115.4775390625,36.87939453125,3,126.0130615234375,195.577880859375,393.2265625,4.237408949109884,4.0308792091654935,90.0,90.0,0.0022222222222222222,0.015555555555555555,0.12666666666666668,1.26,2.49,10.13,11.645943296
1671151806.822068,0,-154.9837646484375,195.698486328125,423.6611328125,1,-68.85986328125,114.15966796875,48.361572265625,2,-15.48785400390625,115.6533203125,43.359375,3,126.383544921875,195.709228515625,399.629150390625,4.237408949109884,4.0308792091654935,90.0,90.0,0.0022222222222222222,0.015555555555555555,0.12666666666666668,1.26,2.49,10.13,11.645943296
1671151806.8320832,0,-154.78253173828125,195.188720703125,430.673095703125,1,-68.41229248046875,114.277099609375,54.76318359375,2,-15.37933349609375,115.491943359375,49.940673828125,3,127.1920166015625,195.659423828125,406.0986328125,4.237408949109884,4.0308792091654935,90.0,90.0,0.0022222222222222222,0.015555555555555555,0.12666666666666668,1.26,2.49,10.13,11.645943296
1671151806.8420618,0,-154.0521240234375,195.39111328125,436.749755859375,1,-68.17620849609375,114.36328125,60.7353515625,2,-15.47137451171875,115.67236328125,55.990478515625,3,127.3919677734375,195.90673828125,411.843994140625,4.237408949109884,4.0308792091654935,90.0,90.0,0.0022222222222222222,0.015555555555555555,0.12666666666666668,1.26,2.49,10.13,11.645943296
1671151806.852076,0,-153.80047607421875,195.10498046875,443.697265625,1,-68.138916015625,114.397705078125,67.490234375,2,-15.80841064453125,116.0361328125,62.693115234375,3,127.5634765625,196.006103515625,418.434326171875,4.237408949109884,4.0308792091654935,90.0,90.0,0.0022222222222222222,0.015555555555555555,0.12666666666666668,1.26,2.49,10.13,11.645943296
1671151806.8620617,0,-153.03125,195.175048828125,449.66162109375,1,-68.00006103515625,114.328857421875,73.460205078125,2,-15.72711181640625,116.119140625,68.611083984375,3,128.0732421875,196.1572265625,424.158935546875,4.604327785750525,4.39679081762712,90.0,90.0,0.006666666666666667,0.03,0.13111111111111112,0.82,1.95,9.69,11.6097144
1671151806.872067,0,-152.306884765625,195.075439453125,456.401123046875,1,-67.7781982421875,114.352783203125,80.05908203125,2,-15.56298828125,116.009521484375,75.113525390625,3,129.146728515625,196.296630859375,430.463623046875,4.604327785750525,4.39679081762712,90.0,90.0,0.006666666666666667,0.03,0.13111111111111112,0.82,1.95,9.69,11.6097144
1671151806.8820832,0,-151.41558837890625,195.211669921875,462.81396484375,1,-67.597900390625,114.071044921875,86.66748046875,2,-15.2506103515625,115.756591796875,81.58544921875,3,129.765625,196.47607421875,436.747314453125,4.604327785750525,4.39679081762712,90.0,90.0,0.006666666666666667,0.03,0.13111111111111112,0.82,1.95,9.69,11.6097144
1671151806.8921437,0,-150.7086181640625,195.53271484375,468.8837890625,1,-67.49261474609375,114.150146484375,92.652587890625,2,-15.42803955078125,116.0,87.451904296875,3,129.8740234375,196.427734375,442.543212890625,4.604327785750525,4.39679081762712,90.0,90.0,0.006666666666666667,0.03,0.13111111111111112,0.82,1.95,9.69,11.6097144
1671151806.9020805,0,-149.9766845703125,195.51171875,475.645751953125,1,-67.29974365234375,114.1708984375,99.12646484375,2,-15.22967529296875,115.8359375,93.951904296875,3,130.2713623046875,196.098876953125,448.8232421875,4.604327785750525,4.39679081762712,90.0,90.0,0.006666666666666667,0.03,0.13111111111111112,0.82,1.95,9.69,11.6097144
1671151806.9120712,0,-149.56414794921875,194.96240234375,481.766357421875,1,-67.0113525390625,114.13525390625,105.119384765625,2,-14.783935546875,115.838134765625,99.919677734375,3,130.626708984375,196.014404296875,454.676025390625,4.604327785750525,4.39679081762712,90.0,90.0,0.006666666666666667,0.03,0.13111111111111112,0.82,1.95,9.69,11.6097144
1671151806.9221396,0,-149.0888671875,195.03759765625,488.56982421875,1,-66.90216064453125,114.08984375,111.692626953125,2,-14.67510986328125,115.7548828125,106.446044921875,3,131.5933837890625,196.1435546875,460.96240234375,4.987650052735099,4.782846989669017,90.0,90.0,-0.014444444444444444,-0.07555555555555556,0.12555555555555556,2.58,3.13,7.41,11.619595008000001
1671151806.9321995,0,-148.5076904296875,194.8642578125,494.595947265625,1,-66.6033935546875,114.056396484375,117.751708984375,2,-14.4700927734375,115.823974609375,112.369140625,3,132.2557373046875,196.23388671875,466.573974609375,4.987650052735099,4.782846989669017,90.0,90.0,-0.014444444444444444,-0.07555555555555556,0.12555555555555556,2.58,3.13,7.41,11.619595008000001
1671151806.9421616,0,-147.86737060546875,194.6845703125,501.3798828125,1,-66.41400146484375,114.024169921875,124.2734375,2,-14.19976806640625,115.812255859375,118.904052734375,3,132.969482421875,196.026123046875,473.07666015625,4.987650052735099,4.782846989669017,90.0,90.0,-0.014444444444444444,-0.07555555555555556,0.12555555555555556,2.58,3.13,7.41,11.619595008000001
1671151806.9520738,0,-147.46844482421875,194.6845703125,507.9951171875,1,-66.16729736328125,114.0537109375,130.854248046875,2,-13.99053955078125,115.74755859375,125.352294921875,3,133.5235595703125,196.255126953125,479.21240234375,4.987650052735099,4.782846989669017,90.0,90.0,-0.014444444444444444,-0.07555555555555556,0.12555555555555556,2.58,3.13,7.41,11.619595008000001
1671151806.9620721,0,-146.92156982421875,194.51318359375,514.001953125,1,-65.9608154296875,113.94921875,136.83203125,2,-13.76373291015625,115.77294921875,131.24951171875,3,134.11474609375,196.08837890625,485.07958984375,5.35135535185222,5.082137648575891,90.0,90.0,0.04777777777777778,0.023333333333333334,0.11333333333333333,0.02,1.66,7.62,11.613007936
1671151806.9720716,0,-145.73199462890625,194.80419921875,520.633056640625,1,-65.6978759765625,114.02734375,143.272705078125,2,-13.20831298828125,115.773681640625,137.509033203125,3,134.8819580078125,196.122314453125,491.39111328125,5.35135535185222,5.082137648575891,90.0,90.0,0.04777777777777778,0.023333333333333334,0.11333333333333333,0.02,1.66,7.62,11.613007936
1671151806.9820662,0,-144.98858642578125,194.53466796875,527.225341796875,1,-65.22882080078125,114.16064453125,149.8115234375,2,-12.89007568359375,115.810302734375,144.153076171875,3,135.55029296875,196.0205078125,497.88427734375,5.35135535185222,5.082137648575891,90.0,90.0,0.04777777777777778,0.023333333333333334,0.11333333333333333,0.02,1.66,7.62,11.613007936
1671151806.9921532,0,-144.546630859375,194.193115234375,533.424072265625,1,-65.039794921875,113.903564453125,155.885009765625,2,-12.72686767578125,115.8515625,150.12255859375,3,136.6488037109375,196.408203125,503.483642578125,5.35135535185222,5.082137648575891,90.0,90.0,0.04777777777777778,0.023333333333333334,0.11333333333333333,0.02,1.66,7.62,11.613007936
1671151807.0021074,0,-143.828125,194.13720703125,540.145263671875,1,-64.72808837890625,113.970703125,162.652099609375,2,-12.5411376953125,115.71826171875,156.7548828125,3,137.526123046875,196.410400390625,509.91162109375,5.35135535185222,5.082137648575891,90.0,90.0,0.04777777777777778,0.023333333333333334,0.11333333333333333,0.02,1.66,7.62,11.613007936
1671151807.0120676,0,-142.74713134765625,194.067626953125,547.04345703125,1,-64.43011474609375,114.10546875,169.17138671875,2,-12.22686767578125,115.774169921875,163.339599609375,3,137.767578125,196.15869140625,516.461669921875,5.35135535185222,5.082137648575891,90.0,90.0,0.04777777777777778,0.023333333333333334,0.11333333333333333,0.02,1.66,7.62,11.613007936
1671151807.02205,0,-141.99176025390625,193.9296875,553.205810546875,1,-64.08416748046875,114.053466796875,175.08984375,2,-11.556396484375,115.50244140625,169.266845703125,3,138.379150390625,196.020751953125,522.140380859375,5.719856975631309,5.464452687381452,90.0,90.0,0.008888888888888889,0.034444444444444444,0.11888888888888889,-1.72,1.84,8.81,11.629475616
1671151807.03207,0,-141.1727294921875,193.984375,559.7841796875,1,-63.75860595703125,114.04736328125,181.67724609375,2,-11.53466796875,115.777099609375,175.751708984375,3,138.8316650390625,195.726806640625,528.782958984375,5.719856975631309,5.464452687381452,90.0,90.0,0.008888888888888889,0.034444444444444444,0.11888888888888889,-1.72,1.84,8.81,11.629475616
1671151807.042148,0,-140.28497314453125,194.28466796875,565.75146484375,1,-63.33404541015625,114.122802734375,187.640625,2,-11.12786865234375,115.84716796875,181.678466796875,3,139.7274169921875,195.834228515625,534.435791015625,5.719856975631309,5.464452687381452,90.0,90.0,0.008888888888888889,0.034444444444444444,0.11888888888888889,-1.72,1.84,8.81,11.629475616
1671151807.0520577,0,-139.44024658203125,193.913330078125,572.493408203125,1,-63.22137451171875,114.194580078125,194.45947265625,2,-10.81854248046875,116.131591796875,188.177734375,3,140.62646484375,195.987548828125,540.74951171875,5.719856975631309,5.464452687381452,90.0,90.0,0.008888888888888889,0.034444444444444444,0.11888888888888889,-1.72,1.84,8.81,11.629475616
1671151807.0620627,0,-138.82232666015625,193.754150390625,578.695068359375,1,-62.76812744140625,114.10205078125,200.190185546875,2,-10.58660888671875,116.01171875,194.10595703125,3,141.30029296875,195.889892578125,546.618896484375,6.064472902593793,5.751081049180729,90.0,90.0,-0.044444444444444446,0.025555555555555557,0.11777777777777777,-1.92,0.58,9.89,11.662410976
1671151807.072103,0,-138.34185791015625,193.774658203125,585.5859375,1,-62.6171875,113.728515625,207.352294921875,2,-10.164306640625,116.076416015625,200.791748046875,3,142.0555419921875,196.18115234375,552.9267578125,6.064472902593793,5.751081049180729,90.0,90.0,-0.044444444444444446,0.025555555555555557,0.11777777777777777,-1.92,0.58,9.89,11.662410976
1671151807.082063,0,-137.2938232421875,193.58740234375,592.3291015625,1,-62.24139404296875,113.4287109375,214.271728515625,2,-9.9703369140625,115.970458984375,207.372802734375,3,142.2733154296875,195.747802734375,559.665283203125,6.064472902593793,5.751081049180729,90.0,90.0,-0.044444444444444446,0.025555555555555557,0.11777777777777777,-1.92,0.58,9.89,11.662410976
1671151807.092143,0,-136.0889892578125,193.877197265625,598.246337890625,1,-61.99066162109375,113.338134765625,220.282958984375,2,-9.6480712890625,116.00634765625,213.23876953125,3,143.4384765625,195.84619140625,565.21923828125,6.064472902593793,5.751081049180729,90.0,90.0,-0.044444444444444446,0.025555555555555557,0.11777777777777777,-1.92,0.58,9.89,11.662410976
1671151807.1021647,0,-134.98529052734375,194.175537109375,604.870849609375,1,-61.55072021484375,113.29638671875,226.9453125,2,-9.255859375,115.891845703125,219.791259765625,3,143.9696044921875,196.195068359375,571.502685546875,6.064472902593793,5.751081049180729,90.0,90.0,-0.044444444444444446,0.025555555555555557,0.11777777777777777,-1.92,0.58,9.89,11.662410976
1671151807.1121168,0,-134.2340087890625,194.019775390625,610.882080078125,1,-61.102294921875,113.1552734375,232.932373046875,2,-8.90234375,115.984375,225.66064453125,3,144.94775390625,195.96484375,577.2119140625,6.064472902593793,5.751081049180729,90.0,90.0,-0.044444444444444446,0.025555555555555557,0.11777777777777777,-1.92,0.58,9.89,11.662410976
1671151807.1220894,0,-133.5733642578125,194.506103515625,617.376708984375,1,-60.68499755859375,113.24365234375,239.419677734375,2,-8.4896240234375,115.9580078125,232.07763671875,3,145.35791015625,196.279052734375,583.43359375,6.442471249203582,6.106009074166446,90.0,90.0,0.021111111111111112,0.005555555555555556,0.12222222222222222,4.81,3.24,10.37,11.622888544
1671151807.1320674,0,-132.35687255859375,194.12060546875,624.114013671875,1,-60.079345703125,112.664794921875,246.102783203125,2,-7.9915771484375,115.706298828125,238.5791015625,3,146.29248046875,195.672119140625,590.064453125,6.442471249203582,6.106009074166446,90.0,90.0,0.021111111111111112,0.005555555555555556,0.12222222222222222,4.81,3.24,10.37,11.622888544
1671151807.1421363,0,-131.85357666015625,194.146728515625,630.1142578125,1,-59.77032470703125,112.99267578125,251.7880859375,2,-7.4173583984375,115.682373046875,244.496337890625,3,147.4669189453125,195.793701171875,595.50390625,6.442471249203582,6.106009074166446,90.0,90.0,0.021111111111111112,0.005555555555555556,0.12222222222222222,4.81,3.24,10.37,11.622888544
1671151807.152082,0,-130.810546875,194.21875,636.72607421875,1,-59.2967529296875,112.77685546875,258.364501953125,2,-7.0797119140625,115.55322265625,250.973388671875,3,148.3525390625,195.81005859375,601.9521484375,6.442471249203582,6.106009074166446,90.0,90.0,0.021111111111111112,0.005555555555555556,0.12222222222222222,4.81,3.24,10.37,11.622888544
1671151807.1620693,0,-130.0863037109375,194.185302734375,642.73828125,1,-59.00445556640625,112.853515625,264.420166015625,2,-6.438720703125,115.388671875,256.94384765625,3,149.33447265625,196.2587890625,607.470458984375,6.796008340037328,6.441703837257667,90.0,90.0,-0.10555555555555556,-0.08666666666666667,0.09888888888888889,0.15,-0.03,7.99,11.642649760000001
1671151807.1721437,0,-128.9774169921875,194.07275390625,649.454833984375,1,-58.30950927734375,112.765380859375,270.841552734375,2,-6.03515625,115.386962890625,263.420166015625,3,150.4337158203125,196.18505859375,613.82763671875,6.796008340037328,6.441703837257667,90.0,90.0,-0.10555555555555556,-0.08666666666666667,0.09888888888888889,0.15,-0.03,7.99,11.642649760000001
1671151807.18225,0,-128.16070556640625,194.176513671875,655.908203125,1,-58.00384521484375,112.8232421875,277.329345703125,2,-5.7000732421875,115.410400390625,269.779296875,3,150.931640625,195.929443359375,620.12353515625,6.796008340037328,6.441703837257667,90.0,90.0,-0.10555555555555556,-0.08666666666666667,0.09888888888888889,0.15,-0.03,7.99,11.642649760000001
1671151807.1921554,0,-127.0870361328125,194.236328125,661.80224609375,1,-57.6229248046875,112.796142578125,283.182861328125,2,-5.2930908203125,115.393798828125,275.572021484375,3,151.5980224609375,195.9208984375,625.770263671875,6.796008340037328,6.441703837257667,90.0,90.0,-0.10555555555555556,-0.08666666666666667,0.09888888888888889,0.15,-0.03,7.99,11.642649760000001
1671151807.2021623,0,-126.6767578125,193.761474609375,668.62890625,1,-57.12481689453125,112.672607421875,289.67529296875,2,-4.78466796875,115.3212890625,281.95263671875,3,152.2615966796875,195.628173828125,632.14501953125,6.796008340037328,6.441703837257667,90.0,90.0,-0.10555555555555556,-0.08666666666666667,0.09888888888888889,0.15,-0.03,7.99,11.642649760000001
1671151807.2121575,0,-125.83148193359375,194.0322265625,674.425537109375,1,-56.6563720703125,112.72021484375,295.636474609375,2,-4.2066650390625,115.239990234375,287.921630859375,3,153.1195068359375,195.586181640625,637.86962890625,6.796008340037328,6.441703837257667,90.0,90.0,-0.10555555555555556,-0.08666666666666667,0.09888888888888889,0.15,-0.03,7.99,11.642649760000001
1671151807.2221632,0,-125.61920166015625,193.58642578125,681.2705078125,1,-55.90924072265625,112.578857421875,302.12109375,2,-3.696533203125,115.347900390625,294.302490234375,3,153.848388671875,195.69287109375,644.17919921875,7.18287988727176,6.828959090465056,90.0,90.0,-0.058888888888888886,0.04,0.10666666666666667,2.16,1.91,6.88,11.642649760000001
1671151807.2322936,0,-124.3839111328125,193.629150390625,687.806640625,1,-55.50152587890625,112.5087890625,308.876220703125,2,-3.2733154296875,115.228271484375,300.87646484375,3,155.07373046875,195.824951171875,650.548583984375,7.18287988727176,6.828959090465056,90.0,90.0,-0.058888888888888886,0.04,0.10666666666666667,2.16,1.91,6.88,11.642649760000001
1671151807.242178,0,-123.6497802734375,193.92724609375,693.925537109375,1,-54.98004150390625,112.5703125,314.758544921875,2,-2.888916015625,115.154296875,306.809814453125,3,155.5277099609375,196.01708984375,656.22705078125,7.18287988727176,6.828959090465056,90.0,90.0,-0.058888888888888886,0.04,0.10666666666666667,2.16,1.91,6.88,11.642649760000001
1671151807.2521644,0,-122.63433837890625,193.90625,700.50927734375,1,-54.49945068359375,112.47265625,321.2900390625,2,-2.333984375,115.147705078125,313.193359375,3,156.8143310546875,195.893798828125,662.419677734375,7.18287988727176,6.828959090465056,90.0,90.0,-0.058888888888888886,0.04,0.10666666666666667,2.16,1.91,6.88,11.642649760000001
1671151807.262109,0,-121.2728271484375,193.8740234375,706.351318359375,1,-53.93145751953125,112.54345703125,327.164794921875,2,-1.7568359375,115.2197265625,319.10986328125,3,157.730712890625,195.9482421875,668.132080078125,7.527351924494384,7.10191792697772,90.0,90.0,-0.04888888888888889,-0.008888888888888889,0.11888888888888889,1.88,1.56,9.29,11.642649760000001
1671151807.2721329,0,-120.807861328125,193.701416015625,713.052001953125,1,-53.41058349609375,112.51611328125,333.68701171875,2,-1.158935546875,115.208984375,325.613525390625,3,158.69580078125,195.9248046875,674.431396484375,7.527351924494384,7.10191792697772,90.0,90.0,-0.04888888888888889,-0.008888888888888889,0.11888888888888889,1.88,1.56,9.29,11.642649760000001
1671151807.2820904,0,-119.892822265625,193.68408203125,719.72998046875,1,-52.9840087890625,112.691162109375,340.2744140625,2,-0.68359375,115.240478515625,332.0673828125,3,159.0469970703125,196.029052734375,680.787109375,7.527351924494384,7.10191792697772,90.0,90.0,-0.04888888888888889,-0.008888888888888889,0.11888888888888889,1.88,1.56,9.29,11.642649760000001
1671151807.2921371,0,-119.1943359375,193.675048828125,725.83740234375,1,-52.493408203125,112.517822265625,346.236572265625,2,-0.1693115234375,115.10595703125,337.95947265625,3,160.106201171875,195.948486328125,686.666015625,7.527351924494384,7.10191792697772,90.0,90.0,-0.04888888888888889,-0.008888888888888889,0.11888888888888889,1.88,1.56,9.29,11.642649760000001
1671151807.3021684,0,-118.0657958984375,194.47900390625,732.38134765625,1,-51.827392578125,112.781494140625,352.828857421875,2,0.5941162109375,115.11962890625,344.601806640625,3,160.9725341796875,195.969482421875,693.00341796875,7.527351924494384,7.10191792697772,90.0,90.0,-0.04888888888888889,-0.008888888888888889,0.11888888888888889,1.88,1.56,9.29,11.642649760000001
1671151807.312157,0,-116.75,194.2890625,738.20166015625,1,-51.247314453125,112.718994140625,358.763671875,2,1.1597900390625,115.217529296875,350.39306640625,3,161.8809814453125,196.104248046875,698.54345703125,7.527351924494384,7.10191792697772,90.0,90.0,-0.04888888888888889,-0.008888888888888889,0.11888888888888889,1.88,1.56,9.29,11.642649760000001
1671151807.322149,0,-115.97467041015625,194.113037109375,745.04150390625,1,-50.6539306640625,112.86865234375,365.371337890625,2,1.534912109375,115.38427734375,356.91650390625,3,163.0767822265625,196.080810546875,704.92041015625,7.527351924494384,7.10191792697772,90.0,90.0,-0.04888888888888889,-0.008888888888888889,0.11888888888888889,1.88,1.56,9.29,11.642649760000001
1671151807.3322778,0,-114.54833984375,194.208251953125,751.521240234375,1,-50.06097412109375,112.79296875,371.85888671875,2,2.1116943359375,115.31884765625,363.400146484375,3,163.8768310546875,196.02001953125,711.377197265625,7.89638114398629,7.5179031649103045,90.0,90.0,-0.04111111111111111,0.03,0.12111111111111111,-2.23,2.57,9.78,11.632769152
1671151807.3422413,0,-113.9052734375,194.41357421875,757.507568359375,1,-49.54876708984375,112.7158203125,377.84375,2,2.6614990234375,115.35888671875,369.24853515625,3,164.738037109375,195.942138671875,717.167236328125,7.89638114398629,7.5179031649103045,90.0,90.0,-0.04111111111111111,0.03,0.12111111111111111,-2.23,2.57,9.78,11.632769152
1671151807.3521538,0,-112.64349365234375,194.441162109375,764.10791015625,1,-49.12103271484375,112.775634765625,384.380859375,2,3.019775390625,115.3798828125,375.699951171875,3,165.6085205078125,196.1572265625,723.50927734375,8.268000378795659,7.793020347520855,90.0,90.0,0.013333333333333334,0.017777777777777778,0.11666666666666667,1.83,1.65,7.97,11.636062688
1671151807.362153,0,-111.5948486328125,194.3193359375,770.18017578125,1,-48.5655517578125,112.718505859375,390.288818359375,2,3.612060546875,115.287841796875,381.599853515625,3,166.544677734375,195.90576171875,729.139892578125,8.268000378795659,7.793020347520855,90.0,90.0,0.013333333333333334,0.017777777777777778,0.11666666666666667,1.83,1.65,7.97,11.636062688
1671151807.3721747,0,-110.559814453125,194.29931640625,777.07763671875,1,-47.9451904296875,112.768310546875,396.816162109375,2,4.2501220703125,115.341796875,388.089599609375,3,167.3392333984375,195.81103515625,735.422607421875,8.268000378795659,7.793020347520855,90.0,90.0,0.013333333333333334,0.017777777777777778,0.11666666666666667,1.83,1.65,7.97,11.636062688
1671151807.382155,0,-109.8419189453125,194.07568359375,783.770751953125,1,-47.38824462890625,112.599609375,403.45458984375,2,4.79931640625,115.1298828125,394.656494140625,3,168.277587890625,195.78662109375,741.721435546875,8.268000378795659,7.793020347520855,90.0,90.0,0.013333333333333334,0.017777777777777778,0.11666666666666667,1.83,1.65,7.97,11.636062688
1671151807.392116,0,-109.05633544921875,193.90869140625,789.841552734375,1,-46.82220458984375,112.549560546875,409.49853515625,2,5.515380859375,115.005859375,400.6142578125,3,169.1744384765625,195.942626953125,747.266357421875,8.268000378795659,7.793020347520855,90.0,90.0,0.013333333333333334,0.017777777777777778,0.11666666666666667,1.83,1.65,7.97,11.636062688
1671151807.4021542,0,-108.27301025390625,193.943115234375,796.51220703125,1,-46.06622314453125,112.5966796875,415.934326171875,2,6.648681640625,114.620849609375,407.097900390625,3,170.941650390625,196.109375,753.572265625,8.268000378795659,7.793020347520855,90.0,90.0,0.013333333333333334,0.017777777777777778,0.11666666666666667,1.83,1.65,7.97,11.636062688
1671151807.4121544,0,-107.4796142578125,193.593994140625,802.59375,1,-45.59356689453125,112.453125,421.86767578125,2,7.1212158203125,114.483154296875,412.972412109375,3,172.0821533203125,196.116455078125,759.12109375,8.268000378795659,7.793020347520855,90.0,90.0,0.013333333333333334,0.017777777777777778,0.11666666666666667,1.83,1.65,7.97,11.636062688
1671151807.422154,0,-106.6353759765625,193.48095703125,809.34521484375,1,-44.99267578125,112.347412109375,428.406982421875,2,7.6749267578125,114.462646484375,419.433349609375,3,172.615966796875,195.844970703125,765.428955078125,8.268000378795659,7.793020347520855,90.0,90.0,0.013333333333333334,0.017777777777777778,0.11666666666666667,1.83,1.65,7.97,11.636062688
1671151807.4322426,0,-105.25579833984375,193.785888671875,815.75439453125,1,-44.4610595703125,112.322265625,434.90869140625,2,8.2303466796875,114.356689453125,425.81005859375,3,173.8919677734375,195.55908203125,771.81591796875,8.62264062430166,8.186702675775283,90.0,90.0,-0.011111111111111112,-0.2633333333333333,0.11,-0.8,1.7,9.39,11.652530368
1671151807.4421582,0,-104.36810302734375,193.651611328125,822.0693359375,1,-43.97357177734375,112.40234375,440.78076171875,2,8.6717529296875,114.40380859375,431.7001953125,3,174.6595458984375,195.4033203125,777.461669921875,8.62264062430166,8.186702675775283,90.0,90.0,-0.011111111111111112,-0.2633333333333333,0.11,-0.8,1.7,9.39,11.652530368
1671151807.452103,0,-103.23468017578125,193.806396484375,828.486083984375,1,-43.294921875,112.156982421875,447.47900390625,2,9.461669921875,114.21142578125,438.217529296875,3,175.9417724609375,195.33056640625,783.798095703125,8.62264062430166,8.186702675775283,90.0,90.0,-0.011111111111111112,-0.2633333333333333,0.11,-0.8,1.7,9.39,11.652530368
1671151807.4621263,0,-101.9957275390625,193.811767578125,835.27001953125,1,-42.63043212890625,112.169189453125,454.103515625,2,10.0810546875,114.156494140625,444.76123046875,3,177.279052734375,195.38330078125,790.2275390625,8.988600196009905,8.458942063588651,90.0,90.0,-0.04666666666666667,-0.028888888888888888,0.13555555555555557,-0.26,1.71,7.06,11.642649760000001
1671151807.4721544,0,-100.84881591796875,193.892333984375,841.143310546875,1,-42.00689697265625,112.337890625,459.967529296875,2,10.654541015625,114.208251953125,450.68798828125,3,177.911376953125,195.18701171875,795.897705078125,8.988600196009905,8.458942063588651,90.0,90.0,-0.04666666666666667,-0.028888888888888888,0.13555555555555557,-0.26,1.71,7.06,11.642649760000001
1671151807.4822855,0,-99.02935791015625,194.314697265625,847.51123046875,1,-41.37078857421875,112.273681640625,466.471923828125,2,11.3157958984375,114.1943359375,457.09814453125,3,179.0689697265625,194.8271484375,802.228515625,8.988600196009905,8.458942063588651,90.0,90.0,-0.04666666666666667,-0.028888888888888888,0.13555555555555557,-0.26,1.71,7.06,11.642649760000001
1671151807.492184,0,-97.85723876953125,194.62548828125,854.09375,1,-40.6405029296875,112.22900390625,473.108642578125,2,11.98388671875,114.20263671875,463.640380859375,3,180.0421142578125,194.7978515625,808.46875,8.988600196009905,8.458942063588651,90.0,90.0,-0.04666666666666667,-0.028888888888888888,0.13555555555555557,-0.26,1.71,7.06,11.642649760000001
1671151807.5021412,0,-96.91839599609375,194.648681640625,860.16162109375,1,-39.97412109375,112.19775390625,479.013916015625,2,12.637451171875,114.1875,469.366455078125,3,181.0577392578125,194.62060546875,814.3125,8.988600196009905,8.458942063588651,90.0,90.0,-0.04666666666666667,-0.028888888888888888,0.13555555555555557,-0.26,1.71,7.06,11.642649760000001
1671151807.5122263,0,-95.96258544921875,194.374755859375,866.94189453125,1,-39.442138671875,112.38525390625,485.5791015625,2,13.0814208984375,114.296142578125,476.034423828125,3,182.5687255859375,194.90625,820.520751953125,8.988600196009905,8.458942063588651,90.0,90.0,-0.04666666666666667,-0.028888888888888888,0.13555555555555557,-0.26,1.71,7.06,11.642649760000001
1671151807.5221565,0,-94.79925537109375,194.041748046875,873.114501953125,1,-38.81866455078125,112.279541015625,491.6572265625,2,13.8721923828125,114.3427734375,481.96142578125,3,183.4776611328125,194.531982421875,826.51611328125,8.988600196009905,8.458942063588651,90.0,90.0,-0.04666666666666667,-0.028888888888888888,0.13555555555555557,-0.26,1.71,7.06,11.642649760000001
1671151807.5321739,0,-93.9566650390625,194.003662109375,880.0289306640625,1,-38.08599853515625,112.366943359375,498.256591796875,2,14.4864501953125,114.300537109375,488.4970703125,3,184.2921142578125,194.6337890625,832.8056640625,9.364392233275188,8.822167730239576,90.0,90.0,-0.02,-0.02,0.13111111111111112,-1.1,3.0,14.75,11.616301472
1671151807.5421858,0,-93.123291015625,193.732666015625,886.0399169921875,1,-37.46868896484375,112.245849609375,504.203125,2,15.1494140625,114.1962890625,494.452392578125,3,185.217041015625,194.6025390625,838.394287109375,9.364392233275188,8.822167730239576,90.0,90.0,-0.02,-0.02,0.13111111111111112,-1.1,3.0,14.75,11.616301472
1671151807.552177,0,-91.49163818359375,193.9931640625,892.7298583984375,1,-36.77508544921875,112.42919921875,510.830078125,2,15.7738037109375,114.383544921875,500.962646484375,3,186.48583984375,194.468505859375,844.88330078125,9.364392233275188,8.822167730239576,90.0,90.0,-0.02,-0.02,0.13111111111111112,-1.1,3.0,14.75,11.616301472
1671151807.5621774,0,-90.52655029296875,194.052734375,899.337158203125,1,-35.9697265625,112.530029296875,517.343994140625,2,16.572021484375,114.438720703125,507.46435546875,3,188.104736328125,194.7021484375,851.150146484375,9.720711192412876,9.170764606671494,90.0,90.0,-0.03222222222222222,-0.22333333333333333,0.1288888888888889,-2.07,2.19,10.9,11.645943296
1671151807.5721686,0,-89.05572509765625,194.16162109375,905.36962890625,1,-35.26385498046875,112.475830078125,523.337646484375,2,17.262939453125,114.33203125,513.360107421875,3,189.2012939453125,194.672607421875,856.901611328125,9.720711192412876,9.170764606671494,90.0,90.0,-0.03222222222222222,-0.22333333333333333,0.1288888888888889,-2.07,2.19,10.9,11.645943296
1671151807.5821168,0,-87.724365234375,194.134033203125,912.009033203125,1,-34.66033935546875,112.552490234375,529.792724609375,2,17.87939453125,114.48876953125,519.681884765625,3,189.9197998046875,194.5517578125,863.103271484375,9.720711192412876,9.170764606671494,90.0,90.0,-0.03222222222222222,-0.22333333333333333,0.1288888888888889,-2.07,2.19,10.9,11.645943296
1671151807.592123,0,-86.53302001953125,194.120849609375,918.0594482421875,1,-33.95013427734375,112.375732421875,535.975341796875,2,18.66650390625,114.308837890625,525.754150390625,3,190.9228515625,194.298095703125,868.707275390625,9.720711192412876,9.170764606671494,90.0,90.0,-0.03222222222222222,-0.22333333333333333,0.1288888888888889,-2.07,2.19,10.9,11.645943296
1671151807.602084,0,-85.73138427734375,194.352294921875,924.7001953125,1,-33.20294189453125,112.513916015625,542.403076171875,2,19.1929931640625,114.4482421875,532.161865234375,3,192.1754150390625,194.5615234375,874.994873046875,9.720711192412876,9.170764606671494,90.0,90.0,-0.03222222222222222,-0.22333333333333333,0.1288888888888889,-2.07,2.19,10.9,11.645943296
1671151807.6120663,0,-84.97015380859375,194.36328125,930.651123046875,1,-32.68927001953125,112.4970703125,548.559814453125,2,19.849853515625,114.53369140625,538.126708984375,3,193.173095703125,194.38916015625,880.704833984375,9.720711192412876,9.170764606671494,90.0,90.0,-0.03222222222222222,-0.22333333333333333,0.1288888888888889,-2.07,2.19,10.9,11.645943296
1671151807.622077,0,-83.57476806640625,194.432861328125,937.3662109375,1,-31.94696044921875,112.435546875,555.26318359375,2,20.55810546875,114.323486328125,544.7734375,3,194.1484375,194.43115234375,886.9822998046875,9.720711192412876,9.170764606671494,90.0,90.0,-0.03222222222222222,-0.22333333333333333,0.1288888888888889,-2.07,2.19,10.9,11.645943296
1671151807.632072,0,-82.18341064453125,194.259033203125,944.042724609375,1,-31.14910888671875,112.313232421875,561.759521484375,2,21.275390625,114.2890625,551.34033203125,3,195.431884765625,194.20654296875,893.404541015625,9.720711192412876,9.170764606671494,90.0,90.0,-0.03222222222222222,-0.22333333333333333,0.1288888888888889,-2.07,2.19,10.9,11.645943296
1671151807.6421483,0,-80.9698486328125,194.523193359375,950.081298828125,1,-30.5614013671875,112.267333984375,567.64990234375,2,21.951171875,114.158935546875,557.154541015625,3,196.4229736328125,194.189453125,899.1534423828125,9.720711192412876,9.170764606671494,90.0,90.0,-0.03222222222222222,-0.22333333333333333,0.1288888888888889,-2.07,2.19,10.9,11.645943296
1671151807.6520653,0,-79.7518310546875,194.393310546875,956.7752685546875,1,-29.690185546875,112.302490234375,574.198974609375,2,22.666748046875,114.22607421875,563.612060546875,3,198.08251953125,194.60205078125,905.263916015625,9.720711192412876,9.170764606671494,90.0,90.0,-0.03222222222222222,-0.22333333333333333,0.1288888888888889,-2.07,2.19,10.9,11.645943296
1671151807.6620667,0,-77.86669921875,194.287841796875,962.870361328125,1,-29.0462646484375,112.14599609375,580.13232421875,2,23.2852783203125,114.15869140625,569.4482421875,3,198.60595703125,194.491455078125,910.7900390625,9.720711192412876,9.170764606671494,90.0,90.0,-0.03222222222222222,-0.22333333333333333,0.1288888888888889,-2.07,2.19,10.9,11.645943296
1671151807.6721706,0,-76.95989990234375,194.031005859375,969.6702880859375,1,-28.5001220703125,112.280517578125,586.66015625,2,23.8758544921875,114.1865234375,575.963623046875,3,199.7640380859375,194.53125,916.9908447265625,9.720711192412876,9.170764606671494,90.0,90.0,-0.03222222222222222,-0.22333333333333333,0.1288888888888889,-2.07,2.19,10.9,11.645943296
1671151807.6822853,0,-76.20697021484375,193.499267578125,976.453369140625,1,-27.75762939453125,112.3662109375,593.01025390625,2,24.7037353515625,114.21484375,582.50390625,3,201.0660400390625,194.479248046875,923.4564208984375,9.720711192412876,9.170764606671494,90.0,90.0,-0.03222222222222222,-0.22333333333333333,0.1288888888888889,-2.07,2.19,10.9,11.645943296
1671151807.6921484,0,-74.90106201171875,193.620361328125,982.4010009765625,1,-26.923095703125,112.282470703125,599.28125,2,25.452392578125,114.18896484375,588.433837890625,3,202.140869140625,194.8486328125,929.00244140625,9.720711192412876,9.170764606671494,90.0,90.0,-0.03222222222222222,-0.22333333333333333,0.1288888888888889,-2.07,2.19,10.9,11.645943296
1671151807.7020562,0,-73.75982666015625,193.663330078125,989.0560302734375,1,-26.00640869140625,112.098388671875,605.914794921875,2,26.2900390625,114.082763671875,595.00830078125,3,203.3402099609375,194.605224609375,935.426513671875,9.720711192412876,9.170764606671494,90.0,90.0,-0.03222222222222222,-0.22333333333333333,0.1288888888888889,-2.07,2.19,10.9,11.645943296
1671151807.7120655,0,-72.82830810546875,193.666015625,994.93359375,1,-25.27679443359375,112.13232421875,611.8154296875,2,26.9989013671875,114.10791015625,600.864501953125,3,204.3265380859375,194.548583984375,941.134033203125,10.104513091863646,9.521327976214819,58.9,58.9,-0.03,-0.03666666666666667,0.11555555555555555,-2.05,1.56,6.15,11.632769152
1671151807.7220693,0,-72.06573486328125,193.853759765625,1001.5782470703125,1,-24.423095703125,112.110595703125,618.404541015625,2,27.8563232421875,114.11376953125,607.334716796875,3,205.368896484375,194.75341796875,947.3680419921875,10.104513091863646,9.521327976214819,58.9,58.9,-0.03,-0.03666666666666667,0.11555555555555555,-2.05,1.56,6.15,11.632769152
1671151807.7320592,0,-70.95513916015625,193.18310546875,1008.3841552734375,1,-23.79534912109375,111.982666015625,624.619140625,2,28.4342041015625,114.1826171875,613.4228515625,3,206.635986328125,194.59033203125,953.734130859375,10.104513091863646,9.521327976214819,58.9,58.9,-0.03,-0.03666666666666667,0.11555555555555555,-2.05,1.56,6.15,11.632769152
1671151807.7421286,0,-69.906982421875,193.0595703125,1014.385498046875,1,-23.321044921875,112.46044921875,630.174560546875,2,28.9493408203125,114.535400390625,618.944580078125,3,207.634765625,194.543212890625,958.9007568359375,11.041139371852982,10.37617692071758,-0.0,0.0,-0.20222222222222222,0.006666666666666667,0.12,-1.57,1.15,9.22,11.718401088
1671151807.7520535,0,-68.16485595703125,192.693603515625,1020.526611328125,1,-22.46527099609375,113.143310546875,635.985595703125,2,29.6971435546875,115.319580078125,624.626708984375,3,208.7733154296875,194.187255859375,964.8900146484375,11.041139371852982,10.37617692071758,-0.0,0.0,-0.20222222222222222,0.006666666666666667,0.12,-1.57,1.15,9.22,11.718401088
1671151807.762069,0,-67.3802490234375,192.73291015625,1025.7777099609375,1,-21.899658203125,114.230224609375,640.846923828125,2,30.3299560546875,116.3427734375,629.46728515625,3,209.832275390625,194.04052734375,969.825439453125,11.041139371852982,10.37617692071758,-0.0,0.0,-0.20222222222222222,0.006666666666666667,0.12,-1.57,1.15,9.22,11.718401088
1671151807.7721589,0,-65.894287109375,191.861328125,1031.946044921875,1,-21.44268798828125,115.435791015625,646.0,2,30.758056640625,117.534423828125,634.538330078125,3,211.3408203125,193.26416015625,975.3968505859375,11.240234808571323,10.560259861243956,-0.0,0.0,-0.017777777777777778,0.37,0.1811111111111111,-9.3,1.52,9.73,11.678878656
1671151807.78207,0,-64.7418212890625,191.394287109375,1037.2357177734375,1,-21.2554931640625,117.6142578125,650.661376953125,2,31.185302734375,119.58544921875,639.08203125,3,212.296875,192.97998046875,980.1593017578125,11.240234808571323,10.560259861243956,-0.0,0.0,-0.017777777777777778,0.37,0.1811111111111111,-9.3,1.52,9.73,11.678878656
1671151807.79215,0,-63.67803955078125,190.92578125,1042.2000732421875,1,-20.78466796875,120.3056640625,654.552001953125,2,31.55615234375,121.780517578125,643.341552734375,3,213.216064453125,192.966796875,984.5157470703125,11.240234808571323,10.560259861243956,-0.0,0.0,-0.017777777777777778,0.37,0.1811111111111111,-9.3,1.52,9.73,11.678878656
1671151807.8021543,0,-62.8037109375,190.566650390625,1046.2353515625,1,-20.469482421875,122.389404296875,657.79638671875,2,31.950439453125,123.663330078125,646.739501953125,3,214.0517578125,192.251708984375,988.4283447265625,11.368488530032378,10.669040504577417,-0.0,0.0,-0.04888888888888889,0.3244444444444444,0.12666666666666668,-3.89,1.14,11.46,11.685465728
1671151807.8121665,0,-62.29693603515625,190.49658203125,1049.8936767578125,1,-20.091796875,124.988037109375,660.947265625,2,32.2760009765625,126.014404296875,650.151123046875,3,214.9615478515625,191.993408203125,992.1214599609375,11.368488530032378,10.669040504577417,-0.0,0.0,-0.04888888888888889,0.3244444444444444,0.12666666666666668,-3.89,1.14,11.46,11.685465728
1671151807.8221617,0,-61.4976806640625,189.959716796875,1053.2593994140625,1,-19.8046875,127.3251953125,663.69775390625,2,32.65185546875,128.280029296875,652.987548828125,3,215.7681884765625,191.55126953125,995.3070068359375,11.368488530032378,10.669040504577417,-0.0,0.0,-0.04888888888888889,0.3244444444444444,0.12666666666666668,-3.89,1.14,11.46,11.685465728
1671151807.8322594,0,-60.7928466796875,189.643310546875,1056.56005859375,1,-19.40765380859375,129.759521484375,666.4892578125,2,32.927490234375,130.729736328125,655.63427734375,3,216.3873291015625,191.137451171875,998.2734375,11.40407725902419,10.696955114110077,-0.0,0.0,0.024444444444444446,0.5066666666666667,0.13,-3.28,1.9,8.98,11.668998048
1671151807.8421097,0,-60.41400146484375,189.749267578125,1059.0330810546875,1,-19.1654052734375,132.053955078125,668.690673828125,2,33.19580078125,132.822265625,657.862548828125,3,216.6795654296875,190.683349609375,1000.8326416015625,11.40407725902419,10.696955114110077,-0.0,0.0,0.024444444444444446,0.5066666666666667,0.13,-3.28,1.9,8.98,11.668998048
1671151807.8521419,0,-59.66339111328125,189.71728515625,1061.38330078125,1,-18.8558349609375,134.3740234375,670.712890625,2,33.54052734375,135.473876953125,659.889404296875,3,217.391357421875,190.315673828125,1003.2744140625,11.40407725902419,10.696955114110077,-0.0,0.0,0.024444444444444446,0.5066666666666667,0.13,-3.28,1.9,8.98,11.668998048
1671151807.862146,0,-59.52276611328125,189.393310546875,1063.43017578125,1,-18.61798095703125,136.640869140625,672.265380859375,2,33.951904296875,137.79443359375,661.437255859375,3,217.87109375,190.181640625,1005.0877685546875,11.418418269763476,10.709713337710914,-0.0,0.0,-0.0022222222222222222,0.6855555555555556,0.08444444444444445,-3.95,1.59,9.19,11.668998048
1671151807.8721704,0,-59.2081298828125,188.8359375,1064.981689453125,1,-18.5213623046875,138.70263671875,673.372314453125,2,34.013916015625,139.82763671875,662.57275390625,3,218.216064453125,189.690673828125,1006.546875,11.418418269763476,10.709713337710914,-0.0,0.0,-0.0022222222222222222,0.6855555555555556,0.08444444444444445,-3.95,1.59,9.19,11.668998048
1671151807.8822758,0,-58.8887939453125,188.372802734375,1066.1641845703125,1,-18.31744384765625,140.926513671875,674.380859375,2,34.1832275390625,142.186279296875,663.34033203125,3,218.3907470703125,189.294189453125,1007.771484375,11.418418269763476,10.709713337710914,-0.0,0.0,-0.0022222222222222222,0.6855555555555556,0.08444444444444445,-3.95,1.59,9.19,11.668998048
1671151807.892146,0,-58.70574951171875,188.01953125,1066.929931640625,1,-18.28961181640625,142.712646484375,674.950927734375,2,34.3770751953125,144.0556640625,663.869384765625,3,218.6094970703125,189.082763671875,1008.4776611328125,11.418418269763476,10.709713337710914,-0.0,0.0,-0.0022222222222222222,0.6855555555555556,0.08444444444444445,-3.95,1.59,9.19,11.668998048
1671151807.9021678,0,-58.41204833984375,187.939208984375,1067.564697265625,1,-18.35009765625,144.3076171875,675.41015625,2,34.404052734375,145.488037109375,664.3740234375,3,218.671875,188.85498046875,1009.2408447265625,11.418418269763476,10.709713337710914,-0.0,0.0,-0.0022222222222222222,0.6855555555555556,0.08444444444444445,-3.95,1.59,9.19,11.668998048
1671151807.9121563,0,-58.26116943359375,187.67724609375,1067.873779296875,1,-18.23699951171875,144.882080078125,675.655517578125,2,34.488525390625,146.17529296875,664.70361328125,3,218.72216796875,188.797119140625,1009.658447265625,11.43026519167854,10.72132044339288,-0.0,0.0,-0.011111111111111112,0.7544444444444445,0.016666666666666666,-4.49,1.83,9.5,11.662410976
1671151807.9221601,0,-58.21343994140625,187.72314453125,1068.1708984375,1,-18.15631103515625,144.889892578125,675.7490234375,2,34.414306640625,146.131591796875,664.799560546875,3,218.7412109375,188.898193359375,1009.816162109375,11.43026519167854,10.72132044339288,-0.0,0.0,-0.011111111111111112,0.7544444444444445,0.016666666666666666,-4.49,1.83,9.5,11.662410976
1671151807.9321609,0,-58.29736328125,187.671630859375,1067.95703125,1,-18.0350341796875,144.32861328125,675.61962890625,2,34.429931640625,145.513671875,664.634521484375,3,218.6697998046875,189.02197265625,1009.805419921875,11.43026519167854,10.72132044339288,-0.0,0.0,-0.011111111111111112,0.7544444444444445,0.016666666666666666,-4.49,1.83,9.5,11.662410976
1671151807.9421625,0,-58.3861083984375,187.97314453125,1067.421875,1,-17.8619384765625,143.531005859375,675.303955078125,2,34.5845947265625,144.646728515625,664.3369140625,3,218.5364990234375,189.00341796875,1009.5262451171875,11.43026519167854,10.72132044339288,-0.0,0.0,-0.011111111111111112,0.7544444444444445,0.016666666666666666,-4.49,1.83,9.5,11.662410976
1671151807.952161,0,-58.63690185546875,188.21728515625,1066.6072998046875,1,-17.9107666015625,142.03369140625,674.7421875,2,34.7630615234375,143.202392578125,663.8154296875,3,218.3048095703125,189.249755859375,1008.8419189453125,11.43026519167854,10.72132044339288,-0.0,0.0,-0.011111111111111112,0.7544444444444445,0.016666666666666666,-4.49,1.83,9.5,11.662410976
1671151807.9621613,0,-58.8258056640625,188.3544921875,1065.7203369140625,1,-17.89178466796875,140.282958984375,674.06103515625,2,34.7470703125,141.396728515625,663.228271484375,3,218.1253662109375,189.64306640625,1007.9549560546875,11.43026519167854,10.72132044339288,-0.0,0.0,-0.011111111111111112,0.7544444444444445,0.016666666666666666,-4.49,1.83,9.5,11.662410976
1671151807.9722347,0,-59.1229248046875,188.90625,1064.391845703125,1,-18.1204833984375,137.5517578125,673.1435546875,2,34.54248046875,138.77734375,662.334228515625,3,217.7625732421875,189.892333984375,1006.5919189453125,11.43486966335403,10.726980106494004,-0.0,0.0,-0.005555555555555556,0.15333333333333332,-0.012222222222222223,-4.22,1.95,9.74,11.668998048
1671151807.982167,0,-59.3424072265625,189.44970703125,1062.8612060546875,1,-18.25469970703125,134.319091796875,672.0234375,2,34.4881591796875,135.59228515625,661.20654296875,3,217.6201171875,190.474609375,1005.000244140625,11.43486966335403,10.726980106494004,-0.0,0.0,-0.005555555555555556,0.15333333333333332,-0.012222222222222223,-4.22,1.95,9.74,11.668998048
1671151807.9921513,0,-59.90008544921875,190.210693359375,1061.0679931640625,1,-18.296142578125,130.87353515625,671.031005859375,2,34.427734375,132.160400390625,660.150634765625,3,217.097412109375,190.943359375,1003.3487548828125,11.43486966335403,10.726980106494004,-0.0,0.0,-0.005555555555555556,0.15333333333333332,-0.012222222222222223,-4.22,1.95,9.74,11.668998048
1671151808.0021663,0,-60.284423828125,190.738037109375,1058.7520751953125,1,-18.42767333984375,126.402587890625,669.727294921875,2,34.05517578125,127.531005859375,658.876708984375,3,216.709228515625,191.4326171875,1001.344482421875,11.43486966335403,10.726980106494004,-0.0,0.0,-0.005555555555555556,0.15333333333333332,-0.012222222222222223,-4.22,1.95,9.74,11.668998048
