Time,Marker0_ID,Marker0_x,Marker0_y,Marker0_z,Marker1_ID,Marker1_x,Marker1_y,Marker1_z,Marker2_ID,Marker2_x,Marker2_y,Marker2_z,Marker3_ID,Marker3_x,Marker3_y,Marker3_z,thetaR,thetaL,dutyR,dutyL,wx,wy,wz,ax,ay,az,Vbatt
1671151313.3853102,0,0,0,0,0,0,0,0,0,0,0,0,0,0,0,0,0,0,0,0,0,0,0,0,0,0,0
1671151313.3954113,0,-182.57855224609375,196.095947265625,42.517333984375,1,-53.5345458984375,116.04833984375,-319.462158203125,2,1.04736328125,116.839111328125,-318.1943359375,3,98.6729736328125,197.06640625,52.640625,0,0,0,0,0,0,0,0,0,0,0
1671151313.4054055,0,-182.63739013671875,196.0849609375,42.50341796875,1,-53.54974365234375,116.133544921875,-319.489013671875,2,1.0430908203125,116.864990234375,-318.19189453125,3,98.8209228515625,196.999755859375,52.612548828125,0,0,0,0,0,0,0,0,0,0,0
1671151313.4154756,0,-182.6702880859375,196.103759765625,42.542724609375,1,-53.5057373046875,116.046142578125,-319.462646484375,2,1.052734375,116.78173828125,-318.15625,3,98.60693359375,197.0234375,52.60107421875,0,0,0,0,0,0,0,0,0,0,0
1671151313.4254036,0,-182.61627197265625,196.1396484375,42.558837890625,1,-53.533203125,116.103759765625,-319.47900390625,2,1.0325927734375,116.830810546875,-318.21435546875,3,98.748046875,197.01806640625,52.62548828125,0,0,0,0,0,0,0,0,0,0,0
1671151313.4353952,0,-182.58953857421875,196.0830078125,42.52783203125,1,-53.5599365234375,116.068115234375,-319.44970703125,2,1.0244140625,116.76611328125,-318.169677734375,3,98.6658935546875,197.072998046875,52.630615234375,0,0,0,0,0,0,0,0,0,0,0
1671151313.445395,0,-182.64117431640625,196.086181640625,42.524169921875,1,-53.5216064453125,116.051513671875,-319.4697265625,2,1.0384521484375,116.810791015625,-318.177490234375,3,98.744384765625,197.000244140625,52.62646484375,0,0,0,0,0,0,0,0,0,0,0
1671151313.4554317,0,-182.63470458984375,196.1201171875,42.539306640625,1,-53.53704833984375,116.120849609375,-319.4658203125,2,1.05810546875,116.801025390625,-318.18798828125,3,98.649658203125,196.998779296875,52.6015625,0.0,0.0,0.0,0.0,0.0,-0.0022222222222222222,-0.0,-0.15,1.82,9.7,11.734868768
1671151313.4655004,0,-182.5965576171875,196.14404296875,42.57080078125,1,-53.5201416015625,116.044677734375,-319.46337890625,2,1.007080078125,116.722900390625,-318.14208984375,3,98.6060791015625,197.051513671875,52.61083984375,0.0,0.0,0.0,0.0,0.0,-0.0022222222222222222,-0.0,-0.15,1.82,9.7,11.734868768
1671151313.4754903,0,-182.65380859375,196.14892578125,42.54736328125,1,-53.51629638671875,116.1103515625,-319.47021484375,2,1.027099609375,116.782958984375,-318.166748046875,3,98.747314453125,197.051025390625,52.62548828125,0.0,0.0,0.0,0.0,0.0,-0.0022222222222222222,-0.0,-0.15,1.82,9.7,11.734868768
1671151313.485403,0,-182.59967041015625,196.109375,42.537353515625,1,-53.5128173828125,116.048828125,-319.470458984375,2,1.06201171875,116.77197265625,-318.17626953125,3,98.7008056640625,197.0546875,52.6240234375,0.0,0.0,0.0,0.0,0.0,-0.0022222222222222222,-0.0,-0.15,1.82,9.7,11.734868768
1671151313.495496,0,-182.64764404296875,196.04345703125,42.516357421875,1,-53.51416015625,116.055419921875,-319.46826171875,2,1.056640625,116.8349609375,-318.177001953125,3,98.693359375,197.04150390625,52.60498046875,0.0,0.0,0.0,0.0,0.0,-0.0022222222222222222,-0.0,-0.15,1.82,9.7,11.734868768
1671151313.5053942,0,-182.6536865234375,196.17041015625,42.54443359375,1,-53.53485107421875,116.165771484375,-319.514892578125,2,1.058837890625,116.764892578125,-318.175048828125,3,98.628662109375,197.015625,52.588134765625,0.0,0.0,0.0,0.0,0.0011111111111111111,0.0011111111111111111,-0.0,-0.14,1.83,9.71,11.74145584
1671151313.5155437,0,-182.6123046875,196.198974609375,42.5361328125,1,-53.5443115234375,116.081787109375,-319.490966796875,2,1.052490234375,116.796875,-318.17529296875,3,98.5615234375,197.032958984375,52.601806640625,0.0,0.0,0.0,0.0,0.0011111111111111111,0.0011111111111111111,-0.0,-0.14,1.83,9.71,11.74145584
1671151313.525483,0,-182.613037109375,196.127197265625,42.567626953125,1,-53.55804443359375,116.128173828125,-319.493896484375,2,1.037841796875,116.781982421875,-318.198486328125,3,98.6695556640625,197.10595703125,52.602783203125,0.0,0.0,0.0,0.0,0.0011111111111111111,0.0011111111111111111,-0.0,-0.14,1.83,9.71,11.74145584
1671151313.535494,0,-182.54827880859375,196.101806640625,42.52587890625,1,-53.52532958984375,116.036376953125,-319.4443359375,2,1.0743408203125,116.79541015625,-318.1767578125,3,98.6551513671875,197.087158203125,52.6181640625,0.0,0.0,0.0,0.0,0.0011111111111111111,0.0011111111111111111,-0.0,-0.14,1.83,9.71,11.74145584
1671151313.5454206,0,-182.568115234375,196.089599609375,42.51171875,1,-53.5457763671875,116.06396484375,-319.488525390625,2,1.0653076171875,116.782958984375,-318.173828125,3,98.678955078125,197.079345703125,52.627197265625,0.0,0.0,0.0,0.0,0.0011111111111111111,-0.0011111111111111111,-0.0022222222222222222,-0.13,1.83,9.73,11.75792352
1671151313.555468,0,-182.572265625,196.106201171875,42.554443359375,1,-53.53399658203125,116.121337890625,-319.521240234375,2,1.069091796875,116.776123046875,-318.197265625,3,98.5701904296875,197.036376953125,52.576416015625,0.0,0.0,0.0,0.0,0.0011111111111111111,-0.0011111111111111111,-0.0022222222222222222,-0.13,1.83,9.73,11.75792352
1671151313.5654821,0,-182.60302734375,196.121337890625,42.55419921875,1,-53.53643798828125,116.014892578125,-319.46923828125,2,1.072265625,116.788818359375,-318.23046875,3,98.5491943359375,197.06884765625,52.612060546875,0.0,0.0,0.0,0.0,0.0011111111111111111,-0.0011111111111111111,-0.0022222222222222222,-0.13,1.83,9.73,11.75792352
1671151313.5753584,0,-182.58544921875,196.16259765625,42.533935546875,1,-53.51611328125,116.142822265625,-319.490966796875,2,1.050048828125,116.798828125,-318.1962890625,3,98.6558837890625,197.084716796875,52.625,0.0,0.0,0.0,0.0,0.0011111111111111111,-0.0011111111111111111,-0.0022222222222222222,-0.13,1.83,9.73,11.75792352
1671151313.5853803,0,-182.565185546875,196.103271484375,42.490234375,1,-53.51123046875,116.05224609375,-319.446533203125,2,1.0780029296875,116.744140625,-318.180908203125,3,98.6910400390625,197.04931640625,52.607421875,0.0,0.0,0.0,0.0,0.0011111111111111111,-0.0011111111111111111,-0.0022222222222222222,-0.13,1.83,9.73,11.75792352
1671151313.595383,0,-182.57806396484375,196.0693359375,42.49462890625,1,-53.5428466796875,116.048583984375,-319.47998046875,2,1.03515625,116.76708984375,-318.19091796875,3,98.7083740234375,197.04443359375,52.573974609375,0.0,0.0,0.0,0.0,0.0,0.0011111111111111111,0.0011111111111111111,-0.14,1.82,9.61,11.761217056
1671151313.605403,0,-182.59619140625,196.142578125,42.51123046875,1,-53.54595947265625,116.163818359375,-319.509521484375,2,1.0103759765625,116.734130859375,-318.152099609375,3,98.5806884765625,197.023193359375,52.579833984375,0.0,0.0,0.0,0.0,0.0,0.0011111111111111111,0.0011111111111111111,-0.14,1.82,9.61,11.761217056
1671151313.615445,0,-182.63848876953125,196.17333984375,42.525634765625,1,-53.55126953125,116.06689453125,-319.4873046875,2,1.0389404296875,116.75146484375,-318.175537109375,3,98.5848388671875,197.066650390625,52.57568359375,0.0,0.0,0.0,0.0,0.0,0.0011111111111111111,0.0011111111111111111,-0.14,1.82,9.61,11.761217056
1671151313.6254368,0,-182.63330078125,196.13330078125,42.547119140625,1,-53.52056884765625,116.105224609375,-319.492431640625,2,1.039306640625,116.75634765625,-318.154296875,3,98.700927734375,197.072265625,52.5849609375,0.0,0.0,0.0,0.0,0.0,0.0011111111111111111,0.0011111111111111111,-0.14,1.82,9.61,11.761217056
1671151313.6354105,0,-182.57232666015625,196.08740234375,42.5244140625,1,-53.52593994140625,116.08544921875,-319.474365234375,2,1.055908203125,116.762451171875,-318.12646484375,3,98.6763916015625,197.072998046875,52.645751953125,0.0,0.0,0.0,0.0,0.0,0.0011111111111111111,0.0011111111111111111,-0.14,1.82,9.61,11.761217056
1671151313.645383,0,-182.54931640625,196.072265625,42.513916015625,1,-53.493408203125,116.0458984375,-319.4541015625,2,1.04931640625,116.810791015625,-318.2255859375,3,98.6158447265625,197.086669921875,52.616455078125,0.0,0.0,0.0,0.0,-0.2822222222222222,0.0011111111111111111,-0.0011111111111111111,-0.13,1.8,9.69,11.744749376
1671151313.655432,0,-182.60235595703125,196.10791015625,42.525146484375,1,-53.51458740234375,116.09912109375,-319.48291015625,2,1.031005859375,116.779052734375,-318.2080078125,3,98.7589111328125,197.01513671875,52.604736328125,0.0,0.0,0.0,0.0,-0.2822222222222222,0.0011111111111111111,-0.0011111111111111111,-0.13,1.8,9.69,11.744749376
1671151313.6654413,0,-182.6402587890625,196.1513671875,42.548095703125,1,-53.5377197265625,116.063232421875,-319.46240234375,2,1.02294921875,116.747314453125,-318.17578125,3,98.5794677734375,197.07080078125,52.59716796875,0.0,0.0,0.0,0.0,-0.2822222222222222,0.0011111111111111111,-0.0011111111111111111,-0.13,1.8,9.69,11.744749376
1671151313.6753588,0,-182.61834716796875,196.12158203125,42.55126953125,1,-53.53680419921875,116.1279296875,-319.51513671875,2,1.0743408203125,116.816650390625,-318.19970703125,3,98.6715087890625,197.064453125,52.598388671875,0.0,0.0,0.0,0.0,-0.2822222222222222,0.0011111111111111111,-0.0011111111111111111,-0.13,1.8,9.69,11.744749376
1671151313.6853933,0,-182.61431884765625,196.110107421875,42.510498046875,1,-53.51885986328125,116.0712890625,-319.484375,2,1.0673828125,116.722412109375,-318.146728515625,3,98.6644287109375,197.066162109375,52.621337890625,0.0,0.0,0.0,0.0,-0.2822222222222222,0.0011111111111111111,-0.0011111111111111111,-0.13,1.8,9.69,11.744749376
1671151313.695401,0,-182.66229248046875,196.081787109375,42.5263671875,1,-53.5494384765625,116.084716796875,-319.493896484375,2,1.058349609375,116.8134765625,-318.18603515625,3,98.685302734375,197.073974609375,52.594970703125,0.0,0.0,0.0,0.0,-0.0022222222222222222,0.0022222222222222222,0.0022222222222222222,-0.16,1.82,9.7,11.75792352
1671151313.7053895,0,-182.5992431640625,196.152099609375,42.533203125,1,-53.55804443359375,116.13232421875,-319.515380859375,2,1.048828125,116.76220703125,-318.166015625,3,98.6201171875,197.019287109375,52.595703125,0.0,0.0,0.0,0.0,-0.0022222222222222222,0.0022222222222222222,0.0022222222222222222,-0.16,1.82,9.7,11.75792352
1671151313.7154355,0,-182.5809326171875,196.14697265625,42.520751953125,1,-53.4947509765625,116.06298828125,-319.45068359375,2,1.0391845703125,116.7705078125,-318.15576171875,3,98.5462646484375,197.054443359375,52.587890625,0.0,0.0,0.0,0.0,-0.0022222222222222222,0.0022222222222222222,0.0022222222222222222,-0.16,1.82,9.7,11.75792352
1671151313.7254515,0,-182.69195556640625,196.135986328125,42.518310546875,1,-53.54339599609375,116.12646484375,-319.50341796875,2,1.032958984375,116.7734375,-318.180419921875,3,98.690185546875,197.024169921875,52.599609375,0.0,0.0,0.0,0.0,-0.0022222222222222222,0.0022222222222222222,0.0022222222222222222,-0.16,1.82,9.7,11.75792352
1671151313.735488,0,-182.61956787109375,196.088623046875,42.50927734375,1,-53.505859375,116.0498046875,-319.456787109375,2,1.084228515625,116.7470703125,-318.19921875,3,98.6409912109375,197.07275390625,52.585205078125,0.0,0.0,0.0,0.0,-0.0022222222222222222,0.0022222222222222222,0.0022222222222222222,-0.16,1.82,9.7,11.75792352
1671151313.7455513,0,-182.5975341796875,196.08056640625,42.514892578125,1,-53.535888671875,116.03759765625,-319.440673828125,2,1.0025634765625,116.758056640625,-318.18994140625,3,98.723876953125,197.041748046875,52.591552734375,0.0,0.0,0.0,0.0,-0.0022222222222222222,0.0022222222222222222,0.0022222222222222222,-0.16,1.82,9.7,11.75792352
1671151313.7555122,0,-182.63427734375,196.119873046875,42.535888671875,1,-53.50665283203125,116.106689453125,-319.486572265625,2,1.04248046875,116.735595703125,-318.152099609375,3,98.606689453125,197.032470703125,52.6044921875,0.0,0.0,0.0,0.0,0.2833333333333333,-0.0,-0.2822222222222222,-0.14,1.83,9.73,11.767804128
1671151313.7655053,0,-182.5997314453125,196.126953125,42.5322265625,1,-53.49951171875,116.070068359375,-319.452392578125,2,1.0521240234375,116.75634765625,-318.1533203125,3,98.609130859375,197.0751953125,52.638916015625,0.0,0.0,0.0,0.0,0.2833333333333333,-0.0,-0.2822222222222222,-0.14,1.83,9.73,11.767804128
1671151313.7754662,0,-182.6534423828125,196.140869140625,42.545654296875,1,-53.55865478515625,116.12158203125,-319.50732421875,2,1.05517578125,116.78466796875,-318.181884765625,3,98.654296875,197.093994140625,52.614013671875,0.0,0.0,0.0,0.0,0.2833333333333333,-0.0,-0.2822222222222222,-0.14,1.83,9.73,11.767804128
1671151313.785383,0,-182.60760498046875,196.109130859375,42.528564453125,1,-53.50946044921875,116.066650390625,-319.475341796875,2,1.055908203125,116.7490234375,-318.156982421875,3,98.6807861328125,197.050537109375,52.619384765625,0.0,0.0,0.0,0.0,0.2833333333333333,-0.0,-0.2822222222222222,-0.14,1.83,9.73,11.767804128
1671151313.795395,0,-182.65985107421875,196.09716796875,42.51904296875,1,-53.51495361328125,116.06396484375,-319.455810546875,2,1.10693359375,116.77587890625,-318.18115234375,3,98.7376708984375,197.00048828125,52.588623046875,0.0,0.0,0.0,0.0,-0.0011111111111111111,0.0022222222222222222,-0.0,-0.13,1.82,9.6,11.767804128
1671151313.805484,0,-182.69287109375,196.16357421875,42.5263671875,1,-53.55950927734375,116.126708984375,-319.483642578125,2,1.0390625,116.75,-318.147705078125,3,98.5887451171875,197.0419921875,52.587158203125,0.0,0.0,0.0,0.0,-0.0011111111111111111,0.0022222222222222222,-0.0,-0.13,1.82,9.6,11.767804128
1671151313.8155253,0,-182.6510009765625,196.1640625,42.55078125,1,-53.533447265625,116.052978515625,-319.473876953125,2,1.057861328125,116.7119140625,-318.177490234375,3,98.595458984375,197.02392578125,52.611083984375,0.0,0.0,0.0,0.0,-0.0011111111111111111,0.0022222222222222222,-0.0,-0.13,1.82,9.6,11.767804128
1671151313.8253617,0,-182.6163330078125,196.13134765625,42.542724609375,1,-53.56072998046875,116.097900390625,-319.492431640625,2,1.072265625,116.78857421875,-318.189453125,3,98.6951904296875,197.047119140625,52.617431640625,0.0,0.0,0.0,0.0,-0.0011111111111111111,0.0022222222222222222,-0.0,-0.13,1.82,9.6,11.767804128
1671151313.835438,0,-182.57720947265625,196.073974609375,42.527587890625,1,-53.5357666015625,116.0341796875,-319.472900390625,2,1.0377197265625,116.73095703125,-318.192138671875,3,98.7130126953125,197.07763671875,52.61328125,0.0,0.0,0.0,0.0,-0.0011111111111111111,0.0022222222222222222,-0.0,-0.13,1.82,9.6,11.767804128
1671151313.8454552,0,-182.64678955078125,196.0517578125,42.5244140625,1,-53.55322265625,116.0908203125,-319.497314453125,2,1.03662109375,116.76416015625,-318.17041015625,3,98.6826171875,197.005615234375,52.618896484375,0.0,0.0,0.0,0.0,0.0,0.0022222222222222222,-0.0011111111111111111,-0.15,1.82,9.72,11.738162304000001
1671151313.8554428,0,-182.66973876953125,196.095703125,42.54150390625,1,-53.525390625,116.138427734375,-319.473388671875,2,1.0123291015625,116.74658203125,-318.185546875,3,98.6353759765625,197.01025390625,52.617919921875,0.0,0.0,0.0,0.0,0.0,0.0022222222222222222,-0.0011111111111111111,-0.15,1.82,9.72,11.738162304000001
1671151313.865461,0,-182.59173583984375,196.103759765625,42.558349609375,1,-53.513671875,116.072265625,-319.46484375,2,1.0230712890625,116.730712890625,-318.15283203125,3,98.5958251953125,197.05712890625,52.61962890625,0.0,0.0,0.0,0.0,0.0,0.0022222222222222222,-0.0011111111111111111,-0.15,1.82,9.72,11.738162304000001
1671151313.8754416,0,-182.61614990234375,196.113037109375,42.548828125,1,-53.57818603515625,116.148193359375,-319.509765625,2,1.023681640625,116.751708984375,-318.1884765625,3,98.599853515625,197.08154296875,52.599853515625,0.0,0.0,0.0,0.0,0.0,0.0022222222222222222,-0.0011111111111111111,-0.15,1.82,9.72,11.738162304000001
1671151313.8854554,0,-182.61260986328125,196.099853515625,42.516845703125,1,-53.5400390625,116.0908203125,-319.489013671875,2,1.035888671875,116.754150390625,-318.128173828125,3,98.67724609375,197.0576171875,52.581298828125,0.0,0.0,0.0,0.0,0.0,0.0022222222222222222,-0.0011111111111111111,-0.15,1.82,9.72,11.738162304000001
1671151313.895548,0,-182.59918212890625,196.086669921875,42.517333984375,1,-53.54669189453125,116.080810546875,-319.469482421875,2,1.0428466796875,116.802734375,-318.17578125,3,98.6478271484375,197.072021484375,52.624267578125,0.0,0.0,0.0,0.0,0.0011111111111111111,-0.0011111111111111111,-0.0011111111111111111,-0.14,1.82,9.75,11.764510592
1671151313.9055114,0,-182.62567138671875,196.1025390625,42.55224609375,1,-53.5281982421875,116.16015625,-319.486328125,2,1.02392578125,116.7802734375,-318.1748046875,3,98.5810546875,197.060546875,52.612060546875,0.0,0.0,0.0,0.0,0.0011111111111111111,-0.0011111111111111111,-0.0011111111111111111,-0.14,1.82,9.75,11.764510592
1671151313.9155538,0,-182.64984130859375,196.11572265625,42.53466796875,1,-53.49609375,116.064208984375,-319.49755859375,2,1.0247802734375,116.785888671875,-318.190673828125,3,98.6361083984375,197.03857421875,52.591064453125,0.0,0.0,0.0,0.0,0.0011111111111111111,-0.0011111111111111111,-0.0011111111111111111,-0.14,1.82,9.75,11.764510592
1671151313.925425,0,-182.64251708984375,196.120361328125,42.572021484375,1,-53.537353515625,116.17041015625,-319.501220703125,2,1.0682373046875,116.8125,-318.1494140625,3,98.6336669921875,197.115966796875,52.62255859375,0.0,0.0,0.0,0.0,0.0011111111111111111,-0.0011111111111111111,-0.0011111111111111111,-0.14,1.82,9.75,11.764510592
1671151313.9354224,0,-182.64007568359375,196.052490234375,42.5322265625,1,-53.4833984375,116.04443359375,-319.4482421875,2,1.02001953125,116.767822265625,-318.167236328125,3,98.6263427734375,197.119384765625,52.6474609375,0.0,0.0,0.0,0.0,0.0011111111111111111,-0.0011111111111111111,-0.0011111111111111111,-0.14,1.82,9.75,11.764510592
1671151313.9454226,0,-182.66485595703125,196.03857421875,42.537109375,1,-53.4769287109375,116.048828125,-319.462890625,2,1.0159912109375,116.768310546875,-318.20263671875,3,98.66943359375,197.06396484375,52.62841796875,0.0,0.0,0.0,0.0,0.0011111111111111111,-0.0011111111111111111,0.0011111111111111111,-0.16,1.84,9.69,11.75792352
1671151313.9554894,0,-182.67657470703125,196.023681640625,42.518798828125,1,-53.49212646484375,116.11083984375,-319.455322265625,2,0.9423828125,116.822509765625,-318.211181640625,3,98.7254638671875,197.027099609375,52.607666015625,0.0,0.0,0.0,0.0,0.0011111111111111111,-0.0011111111111111111,0.0011111111111111111,-0.16,1.84,9.69,11.75792352
1671151313.9654818,0,-182.7386474609375,196.14697265625,42.548828125,1,-53.516357421875,116.063720703125,-319.465576171875,2,1.06005859375,116.77392578125,-318.178955078125,3,98.598876953125,197.0146484375,52.593994140625,0.0,0.0,0.0,0.0,0.0011111111111111111,-0.0011111111111111111,0.0011111111111111111,-0.16,1.84,9.69,11.75792352
1671151313.9754968,0,-182.6461181640625,196.1005859375,42.543212890625,1,-53.49884033203125,116.107177734375,-319.482666015625,2,1.012939453125,116.78125,-318.180908203125,3,98.68017578125,197.091064453125,52.59130859375,0.0,0.0,0.0,0.0,0.0011111111111111111,-0.0011111111111111111,0.0011111111111111111,-0.16,1.84,9.69,11.75792352
1671151313.9854565,0,-182.59515380859375,196.0712890625,42.51025390625,1,-53.5306396484375,116.06005859375,-319.456298828125,2,1.0634765625,116.8046875,-318.15869140625,3,98.7235107421875,197.083984375,52.594482421875,0.0,0.0,0.0,0.0,0.0011111111111111111,-0.0011111111111111111,0.0011111111111111111,-0.16,1.84,9.69,11.75792352
1671151313.995502,0,-182.61016845703125,196.099365234375,42.52783203125,1,-53.51177978515625,116.082275390625,-319.446044921875,2,1.046630859375,116.831787109375,-318.1787109375,3,98.731201171875,197.0224609375,52.634521484375,0.0,0.0,0.0,0.0,0.0011111111111111111,-0.0011111111111111111,0.0011111111111111111,-0.16,1.84,9.69,11.75792352
1671151314.0054913,0,-182.61529541015625,196.09326171875,42.54345703125,1,-53.53765869140625,116.117431640625,-319.48193359375,2,1.04296875,116.811767578125,-318.20751953125,3,98.59375,197.031494140625,52.565185546875,0.0,0.0,0.0,0.0,0.0,0.2822222222222222,-0.0011111111111111111,-0.16,1.81,9.65,11.764510592
1671151314.0155113,0,-182.6531982421875,196.12548828125,42.53515625,1,-53.544921875,116.095458984375,-319.473388671875,2,1.036865234375,116.78271484375,-318.191650390625,3,98.5799560546875,197.037109375,52.603759765625,0.0,0.0,0.0,0.0,0.0,0.2822222222222222,-0.0011111111111111111,-0.16,1.81,9.65,11.764510592
1671151314.0255003,0,-182.630126953125,196.1279296875,42.554443359375,1,-53.55810546875,116.156005859375,-319.472412109375,2,1.027587890625,116.778564453125,-318.17041015625,3,98.725341796875,197.0400390625,52.578125,0.0,0.0,0.0,0.0,0.0,0.2822222222222222,-0.0011111111111111111,-0.16,1.81,9.65,11.764510592
1671151314.0354583,0,-182.61480712890625,196.0712890625,42.525146484375,1,-53.46417236328125,116.030029296875,-319.4521484375,2,1.0477294921875,116.783447265625,-318.152099609375,3,98.6400146484375,197.113037109375,52.62353515625,0.0,0.0,0.0,0.0,0.0,-0.0011111111111111111,-0.0033333333333333335,-0.13,1.82,9.65,11.738162304000001
1671151314.045512,0,-182.6236572265625,196.056396484375,42.5380859375,1,-53.51153564453125,116.031494140625,-319.455078125,2,1.02734375,116.809326171875,-318.1953125,3,98.700439453125,197.093017578125,52.6064453125,0.0,0.0,0.0,0.0,0.0,-0.0011111111111111111,-0.0033333333333333335,-0.13,1.82,9.65,11.738162304000001
1671151314.0555007,0,-182.60797119140625,196.1044921875,42.56494140625,1,-53.54449462890625,116.111083984375,-319.46826171875,2,0.99755859375,116.78662109375,-318.150634765625,3,98.5992431640625,197.046630859375,52.57568359375,0.0,0.0,0.0,0.0,0.0,-0.0011111111111111111,-0.0033333333333333335,-0.13,1.82,9.65,11.738162304000001
1671151314.0655062,0,-182.60723876953125,196.106689453125,42.539794921875,1,-53.534423828125,116.0908203125,-319.50927734375,2,1.0140380859375,116.75439453125,-318.140380859375,3,98.5946044921875,197.0341796875,52.5888671875,0.0,0.0,0.0,0.0,0.0,-0.0011111111111111111,-0.0033333333333333335,-0.13,1.82,9.65,11.738162304000001
1671151314.075499,0,-182.63360595703125,196.105712890625,42.558837890625,1,-53.532958984375,116.103271484375,-319.48828125,2,1.053955078125,116.814697265625,-318.1796875,3,98.7939453125,196.995361328125,52.646240234375,0.0,0.0,0.0,0.0,0.0,-0.0011111111111111111,-0.0033333333333333335,-0.13,1.82,9.65,11.738162304000001
1671151314.0854504,0,-182.62213134765625,196.06298828125,42.531982421875,1,-53.5009765625,116.066162109375,-319.4599609375,2,1.040283203125,116.73388671875,-318.137939453125,3,98.7567138671875,197.041259765625,52.638427734375,0.0,0.0,0.0,0.0,0.0,-0.0011111111111111111,-0.0033333333333333335,-0.13,1.82,9.65,11.738162304000001
1671151314.0954528,0,-182.59600830078125,196.094482421875,42.51806640625,1,-53.5186767578125,116.068603515625,-319.462890625,2,1.046630859375,116.820556640625,-318.2080078125,3,98.6807861328125,197.11181640625,52.630859375,0.0,0.0,0.0,0.0,-0.0011111111111111111,-0.0011111111111111111,-0.0,-0.15,1.82,9.64,11.751336448
1671151314.1054397,0,-182.6387939453125,196.118896484375,42.540283203125,1,-53.53570556640625,116.114501953125,-319.498291015625,2,1.0458984375,116.773681640625,-318.164794921875,3,98.5252685546875,197.072021484375,52.579833984375,0.0,0.0,0.0,0.0,-0.0011111111111111111,-0.0011111111111111111,-0.0,-0.15,1.82,9.64,11.751336448
1671151314.115493,0,-182.65814208984375,196.066162109375,42.531005859375,1,-53.50347900390625,116.058837890625,-319.46337890625,2,1.0399169921875,116.751220703125,-318.159423828125,3,98.5347900390625,197.016357421875,52.58642578125,0.0,0.0,0.0,0.0,-0.0011111111111111111,-0.0011111111111111111,-0.0,-0.15,1.82,9.64,11.751336448
1671151314.1254933,0,-182.59326171875,196.13427734375,42.53466796875,1,-53.54754638671875,116.1337890625,-319.49267578125,2,1.0450439453125,116.860107421875,-318.200439453125,3,98.5684814453125,197.115966796875,52.664306640625,0.0,0.0,0.0,0.0,-0.0011111111111111111,-0.0011111111111111111,-0.0,-0.15,1.82,9.64,11.751336448
1671151314.1354935,0,-182.5950927734375,196.092041015625,42.516357421875,1,-53.5277099609375,116.047119140625,-319.4658203125,2,1.0633544921875,116.783447265625,-318.170654296875,3,98.68896484375,197.08251953125,52.607421875,0.0,0.0,0.0,0.0,-0.0011111111111111111,-0.0011111111111111111,-0.0,-0.15,1.82,9.64,11.751336448
1671151314.145561,0,-182.6253662109375,196.099853515625,42.52001953125,1,-53.50830078125,116.053466796875,-319.44775390625,2,0.9979248046875,116.76513671875,-318.166015625,3,98.6463623046875,197.088623046875,52.611083984375,0.0,0.0,0.0,0.0,0.0011111111111111111,0.0022222222222222222,-0.0011111111111111111,-0.14,1.81,9.7,11.734868768
1671151314.155495,0,-182.6220703125,196.127685546875,42.51513671875,1,-53.54742431640625,116.130126953125,-319.500732421875,2,1.013916015625,116.7783203125,-318.16943359375,3,98.6246337890625,197.0048828125,52.609619140625,0.0,0.0,0.0,0.0,0.0011111111111111111,0.0022222222222222222,-0.0011111111111111111,-0.14,1.81,9.7,11.734868768
1671151314.165485,0,-182.6158447265625,196.1630859375,42.5419921875,1,-53.5167236328125,116.093017578125,-319.46728515625,2,1.023193359375,116.78662109375,-318.191162109375,3,98.5684814453125,197.03955078125,52.60693359375,0.0,0.0,0.0,0.0,0.0011111111111111111,0.0022222222222222222,-0.0011111111111111111,-0.14,1.81,9.7,11.734868768
1671151314.1753864,0,-182.5618896484375,196.171875,42.532958984375,1,-53.50592041015625,116.127197265625,-319.491943359375,2,1.0263671875,116.80517578125,-318.176025390625,3,98.6497802734375,197.060791015625,52.615966796875,0.0,0.0,0.0,0.0,0.0011111111111111111,0.0022222222222222222,-0.0011111111111111111,-0.14,1.81,9.7,11.734868768
1671151314.1853902,0,-182.5845947265625,196.1259765625,42.49658203125,1,-53.52447509765625,116.09716796875,-319.47314453125,2,1.044921875,116.80126953125,-318.171142578125,3,98.693603515625,197.048828125,52.614990234375,0.0,0.0,0.0,0.0,0.0011111111111111111,0.0022222222222222222,-0.0011111111111111111,-0.14,1.81,9.7,11.734868768
1671151314.195397,0,-182.587158203125,196.09130859375,42.524658203125,1,-53.5472412109375,116.071044921875,-319.464111328125,2,0.99267578125,116.790771484375,-318.2001953125,3,98.6917724609375,197.063720703125,52.616943359375,0.0,0.0,0.0,0.0,0.0011111111111111111,0.0022222222222222222,-0.0011111111111111111,-0.14,1.81,9.7,11.734868768
1671151314.2053866,0,-182.664306640625,196.109130859375,42.54296875,1,-53.54754638671875,116.110595703125,-319.4814453125,2,1.0135498046875,116.777587890625,-318.190185546875,3,98.5831298828125,197.0556640625,52.607666015625,0.0,0.0,0.0,0.0,-0.0011111111111111111,-0.0,0.0022222222222222222,-0.15,1.82,9.73,11.761217056
1671151314.2154927,0,-182.59307861328125,196.1572265625,42.551025390625,1,-53.526123046875,116.079833984375,-319.4814453125,2,1.047119140625,116.787841796875,-318.17724609375,3,98.5782470703125,197.061767578125,52.624267578125,0.0,0.0,0.0,0.0,-0.0011111111111111111,-0.0,0.0022222222222222222,-0.15,1.82,9.73,11.761217056
1671151314.2254539,0,-182.6112060546875,196.153564453125,42.52294921875,1,-53.55780029296875,116.099609375,-319.501708984375,2,1.0574951171875,116.796142578125,-318.20654296875,3,98.6822509765625,197.124755859375,52.5654296875,0.0,0.0,0.0,0.0,-0.0011111111111111111,-0.0,0.0022222222222222222,-0.15,1.82,9.73,11.761217056
1671151314.2354214,0,-182.62384033203125,196.07177734375,42.50537109375,1,-53.54638671875,116.098876953125,-319.487060546875,2,1.0145263671875,116.7978515625,-318.168701171875,3,98.7611083984375,197.017822265625,52.63818359375,0.0,0.0,0.0,0.0,-0.0011111111111111111,-0.0,0.0022222222222222222,-0.15,1.82,9.73,11.761217056
1671151314.2454336,0,-182.596923828125,196.10791015625,42.516357421875,1,-53.512451171875,116.025146484375,-319.45458984375,2,1.03125,116.801025390625,-318.186767578125,3,98.69140625,197.038330078125,52.58251953125,0.0,0.0,0.0,0.0,0.0011111111111111111,-0.0011111111111111111,-0.0022222222222222222,-0.15,1.84,9.72,11.744749376
1671151314.2555394,0,-182.58099365234375,196.098876953125,42.49072265625,1,-53.55938720703125,116.149658203125,-319.49072265625,2,1.09912109375,116.78955078125,-318.245361328125,3,98.688720703125,197.040283203125,52.57861328125,0.0,0.0,0.0,0.0,0.0011111111111111111,-0.0011111111111111111,-0.0022222222222222222,-0.15,1.84,9.72,11.744749376
1671151314.265519,0,-182.5733642578125,196.2001953125,42.529541015625,1,-53.5035400390625,116.03759765625,-319.434814453125,2,1.066162109375,116.77880859375,-318.18701171875,3,98.6302490234375,197.028076171875,52.564208984375,0.0,0.0,0.0,0.0,0.0011111111111111111,-0.0011111111111111111,-0.0022222222222222222,-0.15,1.84,9.72,11.744749376
1671151314.2755036,0,-182.61065673828125,196.145263671875,42.54052734375,1,-53.54681396484375,116.111083984375,-319.4716796875,2,1.134521484375,116.83642578125,-318.181884765625,3,98.8013916015625,197.017333984375,52.620849609375,0.0,0.0,0.0,0.0,0.0011111111111111111,-0.0011111111111111111,-0.0022222222222222222,-0.15,1.84,9.72,11.744749376
1671151314.2854567,0,-182.60028076171875,196.114501953125,42.503173828125,1,-53.5234375,116.062255859375,-319.4755859375,2,1.0684814453125,116.7822265625,-318.185791015625,3,98.7037353515625,197.017578125,52.578125,0.0,0.0,0.0,0.0,0.0011111111111111111,-0.0011111111111111111,-0.0022222222222222222,-0.15,1.84,9.72,11.744749376
1671151314.2954063,0,-182.61541748046875,196.08251953125,42.5166015625,1,-53.5362548828125,116.069091796875,-319.470458984375,2,1.08203125,116.767822265625,-318.2412109375,3,98.5843505859375,197.10693359375,52.579345703125,0.0,0.0,0.0,0.0,0.0011111111111111111,-0.0011111111111111111,-0.0022222222222222222,-0.15,1.84,9.72,11.744749376
1671151314.3054209,0,-182.57391357421875,196.1162109375,42.55322265625,1,-53.53826904296875,116.102294921875,-319.479736328125,2,1.0400390625,116.770263671875,-318.18359375,3,98.618896484375,197.022216796875,52.6015625,0.0,0.0,0.0,0.0,0.0011111111111111111,-0.0011111111111111111,-0.0022222222222222222,-0.15,1.84,9.72,11.744749376
1671151314.3154616,0,-182.6162109375,196.13134765625,42.534423828125,1,-53.49365234375,116.064208984375,-319.468994140625,2,0.974365234375,116.73876953125,-318.152099609375,3,98.6318359375,197.02490234375,52.591552734375,0.0,0.0,0.0,0.0,0.0011111111111111111,-0.2822222222222222,0.0022222222222222222,-0.15,1.81,9.64,11.74145584
1671151314.3254666,0,-182.69384765625,196.1435546875,42.5380859375,1,-53.55548095703125,116.114990234375,-319.489013671875,2,1.0406494140625,116.763671875,-318.152099609375,3,98.6949462890625,197.0625,52.611572265625,0.0,0.0,0.0,0.0,0.0011111111111111111,-0.2822222222222222,0.0022222222222222222,-0.15,1.81,9.64,11.74145584
1671151314.3354475,0,-182.59710693359375,196.106201171875,42.517822265625,1,-53.531494140625,116.06591796875,-319.499267578125,2,1.0430908203125,116.73388671875,-318.14501953125,3,98.6455078125,197.089111328125,52.5966796875,0.0,0.0,0.0,0.0,0.0011111111111111111,-0.2822222222222222,0.0022222222222222222,-0.15,1.81,9.64,11.74145584
1671151314.3454406,0,-182.60723876953125,196.10888671875,42.51953125,1,-53.52130126953125,116.02880859375,-319.4638671875,2,1.03173828125,116.8173828125,-318.201416015625,3,98.7747802734375,197.025146484375,52.611328125,0.0,0.0,0.0,0.0,0.0011111111111111111,-0.0011111111111111111,0.0022222222222222222,-0.17,1.82,9.59,11.74145584
1671151314.3555572,0,-182.56536865234375,196.06982421875,42.539306640625,1,-53.53155517578125,116.1259765625,-319.462890625,2,0.9908447265625,116.829833984375,-318.175048828125,3,98.9044189453125,196.951416015625,52.58837890625,0.0,0.0,0.0,0.0,0.0011111111111111111,-0.0011111111111111111,0.0022222222222222222,-0.17,1.82,9.59,11.74145584
1671151314.3655121,0,-182.61346435546875,196.112548828125,42.53466796875,1,-53.54437255859375,116.0654296875,-319.4765625,2,1.0318603515625,116.76025390625,-318.16943359375,3,98.6151123046875,197.03125,52.600341796875,0.0,0.0,0.0,0.0,0.0011111111111111111,-0.0011111111111111111,0.0022222222222222222,-0.17,1.82,9.59,11.74145584
1671151314.3756,0,-182.61187744140625,196.092041015625,42.52734375,1,-53.54296875,116.14501953125,-319.525390625,2,1.02783203125,116.8037109375,-318.171630859375,3,98.689208984375,197.09716796875,52.599853515625,0.0,0.0,0.0,0.0,0.0011111111111111111,-0.0011111111111111111,0.0022222222222222222,-0.17,1.82,9.59,11.74145584
1671151314.385425,0,-182.687255859375,196.03662109375,42.539306640625,1,-53.541748046875,116.076171875,-319.47900390625,2,1.071533203125,116.77880859375,-318.163330078125,3,98.70849609375,197.0859375,52.60498046875,0.0,0.0,0.0,0.0,0.0011111111111111111,-0.0011111111111111111,0.0022222222222222222,-0.17,1.82,9.59,11.74145584
1671151314.3954325,0,-182.65966796875,196.026611328125,42.526611328125,1,-53.51483154296875,116.078369140625,-319.468017578125,2,1.0413818359375,116.80126953125,-318.18701171875,3,98.67333984375,197.0341796875,52.64697265625,0.0,0.0,0.0,0.0,0.0011111111111111111,-0.0011111111111111111,0.0022222222222222222,-0.17,1.82,9.59,11.74145584
1671151314.4054463,0,-182.59344482421875,196.088134765625,42.509765625,1,-53.56243896484375,116.1474609375,-319.53076171875,2,1.0660400390625,116.7890625,-318.18798828125,3,98.720947265625,197.05908203125,52.581787109375,0.0,0.0,0.0,0.0,0.0,0.0022222222222222222,0.0022222222222222222,-0.13,1.82,9.72,11.767804128
1671151314.415552,0,-182.624267578125,196.15478515625,42.5087890625,1,-53.5294189453125,116.049072265625,-319.428466796875,2,1.0279541015625,116.755126953125,-318.1728515625,3,98.55517578125,197.071533203125,52.636962890625,0.0,0.0,0.0,0.0,0.0,0.0022222222222222222,0.0022222222222222222,-0.13,1.82,9.72,11.767804128
1671151314.4255774,0,-182.60601806640625,196.11474609375,42.539306640625,1,-53.53253173828125,116.133544921875,-319.479736328125,2,1.108642578125,116.7314453125,-318.1845703125,3,98.6395263671875,197.03759765625,52.619384765625,0.0,0.0,0.0,0.0,0.0,0.0022222222222222222,0.0022222222222222222,-0.13,1.82,9.72,11.767804128
1671151314.4355204,0,-182.5946044921875,196.09033203125,42.525146484375,1,-53.55828857421875,116.036376953125,-319.459716796875,2,1.08154296875,116.69677734375,-318.152587890625,3,98.673095703125,197.052490234375,52.6220703125,0.0,0.0,0.0,0.0,0.0,0.0022222222222222222,0.0022222222222222222,-0.13,1.82,9.72,11.767804128
1671151314.4455023,0,-182.61651611328125,196.10693359375,42.537109375,1,-53.5072021484375,116.05419921875,-319.4404296875,2,1.1024169921875,116.739013671875,-318.208740234375,3,98.705322265625,197.047607421875,52.64404296875,0.0,0.0,0.0,0.0,-0.0011111111111111111,0.0011111111111111111,-0.2833333333333333,-0.15,1.83,9.62,11.75792352
1671151314.455425,0,-182.60321044921875,196.1083984375,42.522216796875,1,-53.54205322265625,116.12841796875,-319.482177734375,2,1.01806640625,116.75634765625,-318.171630859375,3,98.71533203125,197.020751953125,52.6142578125,0.0,0.0,0.0,0.0,-0.0011111111111111111,0.0011111111111111111,-0.2833333333333333,-0.15,1.83,9.62,11.75792352
1671151314.4655368,0,-182.63262939453125,196.130126953125,42.533447265625,1,-53.5621337890625,116.09716796875,-319.496826171875,2,1.048828125,116.756591796875,-318.1259765625,3,98.5926513671875,197.029541015625,52.590087890625,0.0,0.0,0.0,0.0,-0.0011111111111111111,0.0011111111111111111,-0.2833333333333333,-0.15,1.83,9.62,11.75792352
1671151314.4754074,0,-182.60955810546875,196.090576171875,42.534912109375,1,-53.57562255859375,116.112060546875,-319.48193359375,2,1.101318359375,116.72119140625,-318.204345703125,3,98.813232421875,197.02880859375,52.63037109375,0.0,0.0,0.0,0.0,-0.0011111111111111111,0.0011111111111111111,-0.2833333333333333,-0.15,1.83,9.62,11.75792352
1671151314.48547,0,-182.60662841796875,196.109375,42.5224609375,1,-53.51934814453125,116.0107421875,-319.43896484375,2,1.0565185546875,116.75732421875,-318.170654296875,3,98.6385498046875,197.13623046875,52.639892578125,0.0,0.0,0.0,0.0,-0.0011111111111111111,0.0011111111111111111,-0.2833333333333333,-0.15,1.83,9.62,11.75792352
1671151314.4954948,0,-182.62921142578125,196.09130859375,42.52783203125,1,-53.47662353515625,116.004638671875,-319.41015625,2,1.154541015625,116.727783203125,-318.1845703125,3,98.6591796875,197.084228515625,52.643798828125,0.0,0.0,0.0,0.0,-0.0011111111111111111,0.0011111111111111111,-0.2833333333333333,-0.15,1.83,9.62,11.75792352
1671151314.5054429,0,-182.6463623046875,196.0419921875,42.49755859375,1,-53.56671142578125,116.1279296875,-319.490234375,2,1.0439453125,116.747802734375,-318.18798828125,3,98.6580810546875,197.055419921875,52.62353515625,0.0,0.0,0.0,0.0,0.0011111111111111111,-0.0,-0.0,-0.14,1.82,9.66,11.744749376
1671151314.5154846,0,-182.66619873046875,196.0966796875,42.54345703125,1,-53.5186767578125,116.053955078125,-319.467041015625,2,1.052490234375,116.753662109375,-318.134033203125,3,98.5709228515625,197.02734375,52.61083984375,0.0,0.0,0.0,0.0,0.0011111111111111111,-0.0,-0.0,-0.14,1.82,9.66,11.744749376
1671151314.525487,0,-182.66156005859375,196.0810546875,42.537841796875,1,-53.51849365234375,116.066650390625,-319.462646484375,2,1.0513916015625,116.76025390625,-318.1953125,3,98.64892578125,197.075439453125,52.61865234375,0.0,0.0,0.0,0.0,0.0011111111111111111,-0.0,-0.0,-0.14,1.82,9.66,11.744749376
1671151314.5355663,0,-182.62359619140625,196.08056640625,42.54541015625,1,-53.53643798828125,116.03662109375,-319.418212890625,2,1.05224609375,116.7255859375,-318.136474609375,3,98.619873046875,197.084228515625,52.6259765625,0.0,0.0,0.0,0.0,-0.0011111111111111111,0.0022222222222222222,-0.0011111111111111111,-0.15,1.83,9.58,11.74145584
1671151314.5455043,0,-182.613525390625,196.0849609375,42.533447265625,1,-53.55255126953125,116.08251953125,-319.48291015625,2,1.0899658203125,116.785400390625,-318.169189453125,3,98.6622314453125,197.067626953125,52.646484375,0.0,0.0,0.0,0.0,-0.0011111111111111111,0.0022222222222222222,-0.0011111111111111111,-0.15,1.83,9.58,11.74145584
1671151314.555493,0,-182.6121826171875,196.09326171875,42.545654296875,1,-53.55670166015625,116.15869140625,-319.522216796875,2,1.0113525390625,116.7734375,-318.1416015625,3,98.57861328125,197.0224609375,52.613525390625,0.0,0.0,0.0,0.0,-0.0011111111111111111,0.0022222222222222222,-0.0011111111111111111,-0.15,1.83,9.58,11.74145584
1671151314.5655127,0,-182.59442138671875,196.068115234375,42.576171875,1,-53.5352783203125,116.076171875,-319.476318359375,2,1.045166015625,116.715576171875,-318.148681640625,3,98.5560302734375,197.0458984375,52.617919921875,0.0,0.0,0.0,0.0,-0.0011111111111111111,0.0022222222222222222,-0.0011111111111111111,-0.15,1.83,9.58,11.74145584
1671151314.575465,0,-182.5943603515625,196.140625,42.53857421875,1,-53.52435302734375,116.15234375,-319.46142578125,2,1.029296875,116.786865234375,-318.20703125,3,98.6397705078125,197.03955078125,52.610107421875,0.0,0.0,0.0,0.0,-0.0011111111111111111,0.0022222222222222222,-0.0011111111111111111,-0.15,1.83,9.58,11.74145584
1671151314.5855017,0,-182.6171875,196.01806640625,42.525390625,1,-53.5291748046875,116.0419921875,-319.476318359375,2,0.990966796875,116.82470703125,-318.130859375,3,98.6558837890625,197.04443359375,52.64697265625,0.0,0.0,0.0,0.0,-0.0011111111111111111,0.0022222222222222222,-0.0011111111111111111,-0.15,1.83,9.58,11.74145584
1671151314.5954444,0,-182.62567138671875,196.074951171875,42.496826171875,1,-53.52734375,116.0068359375,-319.4638671875,2,1.070068359375,116.810791015625,-318.177734375,3,98.7259521484375,197.01806640625,52.623291015625,0.0,0.0,0.0,0.0,-0.0011111111111111111,0.0011111111111111111,0.0022222222222222222,-0.14,1.82,9.71,11.731575232
1671151314.6054738,0,-182.65740966796875,196.15380859375,42.566162109375,1,-53.55023193359375,116.122314453125,-319.489501953125,2,1.08203125,116.763671875,-318.149169921875,3,98.6251220703125,197.020263671875,52.60888671875,0.0,0.0,0.0,0.0,-0.0011111111111111111,0.0011111111111111111,0.0022222222222222222,-0.14,1.82,9.71,11.731575232
1671151314.6155643,0,-182.606689453125,196.17333984375,42.512939453125,1,-53.5283203125,116.07080078125,-319.4501953125,2,0.9920654296875,116.81591796875,-318.114501953125,3,98.6041259765625,197.031005859375,52.628173828125,0.0,0.0,0.0,0.0,-0.0011111111111111111,0.0011111111111111111,0.0022222222222222222,-0.14,1.82,9.71,11.731575232
1671151314.6254323,0,-182.61968994140625,196.100341796875,42.569091796875,1,-53.54376220703125,116.14453125,-319.50634765625,2,1.08349609375,116.82373046875,-318.18505859375,3,98.68896484375,197.095703125,52.595458984375,0.0,0.0,0.0,0.0,-0.0011111111111111111,0.0011111111111111111,0.0022222222222222222,-0.14,1.82,9.71,11.731575232
1671151314.6355362,0,-182.5751953125,196.08544921875,42.50439453125,1,-53.529052734375,116.051513671875,-319.465576171875,2,1.05029296875,116.768310546875,-318.184326171875,3,98.6593017578125,197.09521484375,52.626220703125,0.0,0.0,0.0,0.0,-0.0011111111111111111,0.0011111111111111111,0.0022222222222222222,-0.14,1.82,9.71,11.731575232
1671151314.6455631,0,-182.61151123046875,196.07861328125,42.52880859375,1,-53.5411376953125,116.065673828125,-319.488525390625,2,1.0728759765625,116.80078125,-318.1982421875,3,98.6783447265625,197.057373046875,52.622802734375,0.0,0.0,0.0,0.0,-0.0011111111111111111,0.0011111111111111111,0.0022222222222222222,-0.14,1.82,9.71,11.731575232
1671151314.6554909,0,-182.637451171875,196.13525390625,42.517822265625,1,-53.51214599609375,116.135986328125,-319.489501953125,2,1.033935546875,116.7763671875,-318.203857421875,3,98.60400390625,197.058349609375,52.582763671875,0.0,0.0,0.0,0.0,-0.0011111111111111111,0.0011111111111111111,-0.0,-0.14,1.8,9.7,11.731575232
1671151314.665517,0,-182.64666748046875,196.091796875,42.55615234375,1,-53.50311279296875,116.055908203125,-319.460205078125,2,1.06005859375,116.755615234375,-318.181396484375,3,98.57666015625,196.99169921875,52.593505859375,0.0,0.0,0.0,0.0,-0.0011111111111111111,0.0011111111111111111,-0.0,-0.14,1.8,9.7,11.731575232
1671151314.6755223,0,-182.569091796875,196.141357421875,42.5419921875,1,-53.52423095703125,116.097412109375,-319.462890625,2,1.0565185546875,116.850341796875,-318.20068359375,3,98.6773681640625,197.07080078125,52.602783203125,0.0,0.0,0.0,0.0,-0.0011111111111111111,0.0011111111111111111,-0.0,-0.14,1.8,9.7,11.731575232
1671151314.6855412,0,-182.61895751953125,196.04736328125,42.511474609375,1,-53.52178955078125,115.9970703125,-319.41943359375,2,1.063232421875,116.77490234375,-318.16064453125,3,98.7720947265625,197.025146484375,52.620361328125,0.0,0.0,0.0,0.0,-0.0011111111111111111,0.0011111111111111111,-0.0,-0.14,1.8,9.7,11.731575232
1671151314.6954994,0,-182.60687255859375,196.03955078125,42.524169921875,1,-53.54229736328125,116.0478515625,-319.4833984375,2,1.0601806640625,116.79248046875,-318.188232421875,3,98.7235107421875,197.0380859375,52.631591796875,0.0,0.0,0.0,0.0,-0.2833333333333333,0.0022222222222222222,-0.0011111111111111111,-0.14,1.82,9.59,11.75792352
1671151314.705454,0,-182.6705322265625,196.086181640625,42.5556640625,1,-53.556396484375,116.0859375,-319.46630859375,2,1.02490234375,116.76318359375,-318.181884765625,3,98.5631103515625,197.064208984375,52.60791015625,0.0,0.0,0.0,0.0,-0.2833333333333333,0.0022222222222222222,-0.0011111111111111111,-0.14,1.82,9.59,11.75792352
1671151314.715504,0,-182.71820068359375,196.0859375,42.5419921875,1,-53.5421142578125,116.033203125,-319.44873046875,2,1.00830078125,116.822265625,-318.1689453125,3,98.5377197265625,197.05419921875,52.635498046875,0.0,0.0,0.0,0.0,-0.2833333333333333,0.0022222222222222222,-0.0011111111111111111,-0.14,1.82,9.59,11.75792352
1671151314.725466,0,-182.6876220703125,196.114501953125,42.53759765625,1,-53.5545654296875,116.150634765625,-319.49755859375,2,1.0277099609375,116.771240234375,-318.186767578125,3,98.62451171875,197.07275390625,52.604736328125,0.0,0.0,0.0,0.0,-0.2833333333333333,0.0022222222222222222,-0.0011111111111111111,-0.14,1.82,9.59,11.75792352
1671151314.7354212,0,-182.61956787109375,196.068603515625,42.509521484375,1,-53.5126953125,116.059814453125,-319.44287109375,2,1.004638671875,116.744384765625,-318.177978515625,3,98.633544921875,197.0673828125,52.599609375,0.0,0.0,0.0,0.0,-0.2833333333333333,0.0022222222222222222,-0.0011111111111111111,-0.14,1.82,9.59,11.75792352
1671151314.7453985,0,-182.61712646484375,196.098388671875,42.53271484375,1,-53.5404052734375,116.051513671875,-319.468994140625,2,1.0506591796875,116.8115234375,-318.2001953125,3,98.6251220703125,197.07861328125,52.603515625,0.0,0.0,0.0,0.0,0.0,-0.0011111111111111111,-0.0,-0.14,1.83,9.72,11.74145584
1671151314.7554338,0,-182.60589599609375,196.1015625,42.508544921875,1,-53.538330078125,116.076904296875,-319.475341796875,2,1.0426025390625,116.794677734375,-318.202880859375,3,98.6932373046875,197.058349609375,52.607421875,0.0,0.0,0.0,0.0,0.0,-0.0011111111111111111,-0.0,-0.14,1.83,9.72,11.74145584
1671151314.7654157,0,-182.5794677734375,196.145263671875,42.52587890625,1,-53.492431640625,116.0390625,-319.457763671875,2,1.06689453125,116.77587890625,-318.15625,3,98.6490478515625,197.039306640625,52.6025390625,0.0,0.0,0.0,0.0,0.0,-0.0011111111111111111,-0.0,-0.14,1.83,9.72,11.74145584
1671151314.7754126,0,-182.52789306640625,196.12060546875,42.560302734375,1,-53.54132080078125,116.1376953125,-319.496826171875,2,1.0462646484375,116.848388671875,-318.207275390625,3,98.62109375,197.085205078125,52.609130859375,0.0,0.0,0.0,0.0,0.0,-0.0011111111111111111,-0.0,-0.14,1.83,9.72,11.74145584
1671151314.7853966,0,-182.56854248046875,196.09375,42.51220703125,1,-53.5167236328125,116.02001953125,-319.470458984375,2,1.0196533203125,116.736328125,-318.161865234375,3,98.6602783203125,197.05859375,52.617919921875,0.0,0.0,0.0,0.0,0.0,-0.0011111111111111111,-0.0,-0.14,1.83,9.72,11.74145584
1671151314.7953932,0,-182.6107177734375,196.107666015625,42.512451171875,1,-53.51995849609375,116.05615234375,-319.4580078125,2,1.0430908203125,116.82958984375,-318.201171875,3,98.6617431640625,197.076171875,52.6328125,0.0,0.0,0.0,0.0,0.0,-0.0,-0.0011111111111111111,-0.15,1.81,9.7,11.751336448
1671151314.805456,0,-182.666748046875,196.1171875,42.5205078125,1,-53.5628662109375,116.132080078125,-319.501953125,2,1.0546875,116.789794921875,-318.153564453125,3,98.63232421875,196.992431640625,52.6044921875,0.0,0.0,0.0,0.0,0.0,-0.0,-0.0011111111111111111,-0.15,1.81,9.7,11.751336448
1671151314.8154967,0,-182.60101318359375,196.101806640625,42.5361328125,1,-53.524169921875,116.063720703125,-319.4814453125,2,1.0718994140625,116.755126953125,-318.14794921875,3,98.6451416015625,197.003173828125,52.591552734375,0.0,0.0,0.0,0.0,0.0,-0.0,-0.0011111111111111111,-0.15,1.81,9.7,11.751336448
1671151314.8254778,0,-182.6676025390625,196.155029296875,42.533935546875,1,-53.5318603515625,116.108154296875,-319.46923828125,2,1.0196533203125,116.82958984375,-318.223388671875,3,98.72509765625,197.03857421875,52.589599609375,0.0,0.0,0.0,0.0,0.0,-0.0,-0.0011111111111111111,-0.15,1.81,9.7,11.751336448
1671151314.8354878,0,-182.60943603515625,196.093994140625,42.52001953125,1,-53.531494140625,116.024169921875,-319.4296875,2,1.0184326171875,116.756591796875,-318.19873046875,3,98.7471923828125,197.00537109375,52.5751953125,0.0,0.0,0.0,0.0,0.0,-0.0,-0.0011111111111111111,-0.15,1.81,9.7,11.751336448
1671151314.845502,0,-182.55926513671875,196.0703125,42.539306640625,1,-53.5166015625,116.041748046875,-319.462890625,2,1.09521484375,116.825927734375,-318.228759765625,3,98.7025146484375,197.053955078125,52.617919921875,0.0,0.0,0.0,0.0,0.0,-0.0,-0.0011111111111111111,-0.15,1.81,9.7,11.751336448
1671151314.8555958,0,-182.52886962890625,196.089111328125,42.512939453125,1,-53.51385498046875,116.098876953125,-319.467041015625,2,1.031982421875,116.7626953125,-318.19384765625,3,98.6685791015625,197.080078125,52.67431640625,0.0,0.0,0.0,0.0,-0.0011111111111111111,0.2833333333333333,-0.0011111111111111111,-0.14,1.83,9.7,11.738162304000001
1671151314.865522,0,-182.6414794921875,196.122314453125,42.5634765625,1,-53.506103515625,116.060302734375,-319.459716796875,2,1.02197265625,116.739501953125,-318.135009765625,3,98.585693359375,197.027587890625,52.632568359375,0.0,0.0,0.0,0.0,-0.0011111111111111111,0.2833333333333333,-0.0011111111111111111,-0.14,1.83,9.7,11.738162304000001
1671151314.8754795,0,-182.62359619140625,196.1083984375,42.535888671875,1,-53.55328369140625,116.127197265625,-319.475341796875,2,1.0220947265625,116.77294921875,-318.18505859375,3,98.6595458984375,197.100830078125,52.627685546875,0.0,0.0,0.0,0.0,-0.0011111111111111111,0.2833333333333333,-0.0011111111111111111,-0.14,1.83,9.7,11.738162304000001
1671151314.885497,0,-182.591796875,196.08203125,42.523681640625,1,-53.4879150390625,116.0185546875,-319.44482421875,2,1.043212890625,116.729736328125,-318.137451171875,3,98.643798828125,197.07861328125,52.588623046875,0.0,0.0,0.0,0.0,-0.0011111111111111111,0.2833333333333333,-0.0011111111111111111,-0.14,1.83,9.7,11.738162304000001
1671151314.8954644,0,-182.63885498046875,196.072265625,42.5126953125,1,-53.54107666015625,116.045654296875,-319.440185546875,2,1.025390625,116.80859375,-318.198974609375,3,98.695556640625,197.068359375,52.632080078125,0.0,0.0,0.0,0.0,0.0,-0.0,-0.0,-0.14,1.82,9.7,11.75792352
1671151314.9054065,0,-182.62347412109375,196.0908203125,42.51513671875,1,-53.52203369140625,116.1123046875,-319.482421875,2,1.03564453125,116.78125,-318.183349609375,3,98.7030029296875,197.063232421875,52.5927734375,0.0,0.0,0.0,0.0,0.0,-0.0,-0.0,-0.14,1.82,9.7,11.75792352
1671151314.9154058,0,-182.64422607421875,196.09033203125,42.55517578125,1,-53.51220703125,116.062744140625,-319.462646484375,2,1.046630859375,116.74560546875,-318.15771484375,3,98.5855712890625,197.032470703125,52.6142578125,0.0,0.0,0.0,0.0,0.0,-0.0,-0.0,-0.14,1.82,9.7,11.75792352
1671151314.9253972,0,-182.636474609375,196.05859375,42.5517578125,1,-53.504150390625,116.110595703125,-319.467529296875,2,1.0318603515625,116.801513671875,-318.188720703125,3,98.6578369140625,197.071533203125,52.637939453125,0.0,0.0,0.0,0.0,0.0,-0.0,-0.0,-0.14,1.82,9.7,11.75792352
1671151314.9354107,0,-182.57293701171875,196.064208984375,42.53759765625,1,-53.5013427734375,116.03369140625,-319.454833984375,2,1.02587890625,116.720947265625,-318.134765625,3,98.681396484375,197.056884765625,52.630126953125,0.0,0.0,0.0,0.0,0.0,-0.0,-0.0,-0.14,1.82,9.7,11.75792352
1671151314.9453847,0,-182.64691162109375,196.055419921875,42.54541015625,1,-53.5028076171875,116.02490234375,-319.444580078125,2,1.0404052734375,116.805908203125,-318.182861328125,3,98.7777099609375,197.045654296875,52.629638671875,0.0,0.0,0.0,0.0,-0.28444444444444444,-0.0011111111111111111,-0.0011111111111111111,-0.16,1.82,9.61,11.738162304000001
1671151314.955362,0,-182.64044189453125,196.070068359375,42.54443359375,1,-53.52435302734375,116.120849609375,-319.456298828125,2,1.0394287109375,116.840576171875,-318.2353515625,3,98.7449951171875,197.027099609375,52.65234375,0.0,0.0,0.0,0.0,-0.28444444444444444,-0.0011111111111111111,-0.0011111111111111111,-0.16,1.82,9.61,11.738162304000001
1671151314.9653795,0,-182.66656494140625,196.09326171875,42.564208984375,1,-53.53497314453125,116.0537109375,-319.45703125,2,1.0338134765625,116.772216796875,-318.177734375,3,98.609375,196.994384765625,52.602294921875,0.0,0.0,0.0,0.0,-0.28444444444444444,-0.0011111111111111111,-0.0011111111111111111,-0.16,1.82,9.61,11.738162304000001
1671151314.9753697,0,-182.60858154296875,196.090087890625,42.544921875,1,-53.51629638671875,116.063720703125,-319.4638671875,2,1.0419921875,116.802978515625,-318.21826171875,3,98.7568359375,197.025146484375,52.605712890625,0.0,0.0,0.0,0.0,-0.28444444444444444,-0.0011111111111111111,-0.0011111111111111111,-0.16,1.82,9.61,11.738162304000001
1671151314.985401,0,-182.64288330078125,196.058349609375,42.53271484375,1,-53.52398681640625,116.001953125,-319.41748046875,2,1.030517578125,116.779052734375,-318.1767578125,3,98.6353759765625,197.075927734375,52.648681640625,0.0,0.0,0.0,0.0,-0.28444444444444444,-0.0011111111111111111,-0.0011111111111111111,-0.16,1.82,9.61,11.738162304000001
1671151314.9953864,0,-182.61407470703125,196.117431640625,42.519775390625,1,-53.53271484375,116.075927734375,-319.466552734375,2,1.0533447265625,116.79248046875,-318.17626953125,3,98.6678466796875,197.058837890625,52.65478515625,0.0,0.0,0.0,0.0,0.0,0.28444444444444444,-0.0011111111111111111,-0.15,1.82,9.69,11.738162304000001
1671151315.0054224,0,-182.5643310546875,196.087158203125,42.529541015625,1,-53.54644775390625,116.146240234375,-319.474853515625,2,1.000732421875,116.766845703125,-318.17822265625,3,98.709228515625,197.036865234375,52.60986328125,0.0,0.0,0.0,0.0,0.0,0.28444444444444444,-0.0011111111111111111,-0.15,1.82,9.69,11.738162304000001
1671151315.0154269,0,-182.65234375,196.14501953125,42.5498046875,1,-53.53460693359375,116.0810546875,-319.456298828125,2,1.00830078125,116.752685546875,-318.1982421875,3,98.57080078125,197.01904296875,52.615234375,0.0,0.0,0.0,0.0,0.0,0.28444444444444444,-0.0011111111111111111,-0.15,1.82,9.69,11.738162304000001
1671151315.025437,0,-182.62451171875,196.1455078125,42.531494140625,1,-53.5513916015625,116.072509765625,-319.478759765625,2,1.0263671875,116.780517578125,-318.16943359375,3,98.6064453125,197.054931640625,52.6201171875,0.0,0.0,0.0,0.0,0.0,0.28444444444444444,-0.0011111111111111111,-0.15,1.82,9.69,11.738162304000001
1671151315.0354528,0,-182.59716796875,196.06982421875,42.529541015625,1,-53.5404052734375,116.033203125,-319.484130859375,2,1.017822265625,116.766845703125,-318.1875,3,98.6217041015625,197.06640625,52.626953125,0.0,0.0,0.0,0.0,0.0,0.28444444444444444,-0.0011111111111111111,-0.15,1.82,9.69,11.738162304000001
1671151315.0454106,0,-182.59686279296875,196.084228515625,42.5322265625,1,-53.526611328125,116.05810546875,-319.47705078125,2,1.0224609375,116.7939453125,-318.184814453125,3,98.6810302734375,197.054443359375,52.63037109375,0.0,0.0,0.0,0.0,0.0,0.28444444444444444,-0.0011111111111111111,-0.15,1.82,9.69,11.738162304000001
1671151315.0554233,0,-182.56939697265625,196.0810546875,42.53759765625,1,-53.52801513671875,116.138916015625,-319.489501953125,2,1.030029296875,116.79345703125,-318.197021484375,3,98.71044921875,196.9990234375,52.603515625,0.0,0.0,0.0,0.0,-0.28444444444444444,-0.0,-0.0011111111111111111,-0.15,1.81,9.7,11.75792352
1671151315.0654576,0,-182.6551513671875,196.125732421875,42.578369140625,1,-53.533447265625,116.0576171875,-319.45947265625,2,1.0233154296875,116.7607421875,-318.16796875,3,98.6259765625,197.04443359375,52.592041015625,0.0,0.0,0.0,0.0,-0.28444444444444444,-0.0,-0.0011111111111111111,-0.15,1.81,9.7,11.75792352
1671151315.0753977,0,-182.62615966796875,196.115478515625,42.54345703125,1,-53.54327392578125,116.133544921875,-319.49560546875,2,1.0982666015625,116.750244140625,-318.212158203125,3,98.6893310546875,197.120361328125,52.580810546875,0.0,0.0,0.0,0.0,-0.28444444444444444,-0.0,-0.0011111111111111111,-0.15,1.81,9.7,11.75792352
1671151315.0853946,0,-182.59881591796875,196.10498046875,42.522216796875,1,-53.5462646484375,116.05615234375,-319.46875,2,1.0499267578125,116.77587890625,-318.1953125,3,98.7178955078125,197.00830078125,52.59326171875,0.0,0.0,0.0,0.0,-0.28444444444444444,-0.0,-0.0011111111111111111,-0.15,1.81,9.7,11.75792352
1671151315.0954032,0,-182.58013916015625,196.05712890625,42.531005859375,1,-53.537353515625,116.08251953125,-319.4677734375,2,1.0596923828125,116.79345703125,-318.18701171875,3,98.69091796875,197.007080078125,52.58740234375,0.0,0.0,0.0,0.0,-0.28444444444444444,-0.0,-0.0011111111111111111,-0.15,1.81,9.7,11.75792352
1671151315.1055393,0,-182.6097412109375,196.068359375,42.532958984375,1,-53.56170654296875,116.12158203125,-319.48388671875,2,1.05126953125,116.805908203125,-318.21728515625,3,98.7122802734375,197.03173828125,52.62255859375,0.0,0.0,6.5,6.5,-0.0011111111111111111,0.0022222222222222222,-0.2833333333333333,-0.14,1.81,9.73,11.74145584
1671151315.1155,0,-182.6339111328125,196.16162109375,42.535400390625,1,-53.48992919921875,116.011474609375,-319.424072265625,2,1.05859375,116.77734375,-318.162109375,3,98.5701904296875,197.0810546875,52.62255859375,0.0,0.0,6.5,6.5,-0.0011111111111111111,0.0022222222222222222,-0.2833333333333333,-0.14,1.81,9.73,11.74145584
1671151315.1256323,0,-182.6075439453125,196.1357421875,42.584228515625,1,-53.5628662109375,116.114013671875,-319.4345703125,2,1.0401611328125,116.790283203125,-318.1474609375,3,98.7681884765625,197.059326171875,52.63330078125,0.0,0.0,6.5,6.5,-0.0011111111111111111,0.0022222222222222222,-0.2833333333333333,-0.14,1.81,9.73,11.74145584
1671151315.135486,0,-182.597412109375,196.07958984375,42.62158203125,1,-53.62841796875,116.054931640625,-319.37158203125,2,0.9906005859375,116.77783203125,-318.10888671875,3,98.7313232421875,197.0634765625,52.650146484375,0.0,0.0,6.5,6.5,-0.0011111111111111111,0.0022222222222222222,-0.2833333333333333,-0.14,1.81,9.73,11.74145584
1671151315.1454053,0,-182.52978515625,196.1083984375,42.740478515625,1,-53.7149658203125,116.035888671875,-319.2607421875,2,0.8115234375,116.7861328125,-318.043701171875,3,98.7535400390625,197.054443359375,52.66064453125,0.0009113016857741384,0.0009592649323938299,7.3,7.3,-0.2833333333333333,-0.0011111111111111111,-0.0011111111111111111,-0.26,1.89,9.6,11.751336448
1671151315.155404,0,-182.5726318359375,196.127197265625,42.95361328125,1,-53.8870849609375,116.0947265625,-319.135009765625,2,0.675048828125,116.782958984375,-317.8681640625,3,98.811767578125,196.998291015625,52.760986328125,0.0009113016857741384,0.0009592649323938299,7.3,7.3,-0.2833333333333333,-0.0011111111111111111,-0.0011111111111111111,-0.26,1.89,9.6,11.751336448
1671151315.165504,0,-182.53009033203125,196.231689453125,43.232177734375,1,-54.0218505859375,116.075439453125,-318.957763671875,2,0.4617919921875,116.746337890625,-317.68798828125,3,98.7069091796875,197.05859375,52.829833984375,0.0009113016857741384,0.0009592649323938299,7.3,7.3,-0.2833333333333333,-0.0011111111111111111,-0.0011111111111111111,-0.26,1.89,9.6,11.751336448
1671151315.1754048,0,-182.55560302734375,196.214599609375,43.514404296875,1,-54.14825439453125,116.11962890625,-318.73291015625,2,0.4111328125,116.792724609375,-317.502685546875,3,98.8740234375,197.115478515625,53.00537109375,0.0009113016857741384,0.0009592649323938299,7.3,7.3,-0.2833333333333333,-0.0011111111111111111,-0.0011111111111111111,-0.26,1.89,9.6,11.751336448
1671151315.1853952,0,-182.49969482421875,196.0947265625,43.731689453125,1,-54.150634765625,116.033447265625,-318.46142578125,2,0.3984375,116.798828125,-317.26611328125,3,98.8499755859375,197.109375,53.21240234375,0.0009113016857741384,0.0009592649323938299,7.3,7.3,-0.2833333333333333,-0.0011111111111111111,-0.0011111111111111111,-0.26,1.89,9.6,11.751336448
1671151315.1953998,0,-182.55389404296875,196.104248046875,43.97216796875,1,-54.1424560546875,116.083984375,-318.189453125,2,0.498779296875,116.794189453125,-317.010986328125,3,98.816650390625,197.106689453125,53.530029296875,0.012614333860978865,0.011798958668444109,7.3,7.3,-0.0033333333333333335,-0.006666666666666667,0.04,0.22,1.88,9.57,11.744749376
1671151315.2053952,0,-182.605224609375,196.14990234375,44.30126953125,1,-54.10089111328125,116.138916015625,-317.873779296875,2,0.608154296875,116.796630859375,-316.73095703125,3,98.82080078125,197.121337890625,53.861572265625,0.012614333860978865,0.011798958668444109,7.3,7.3,-0.0033333333333333335,-0.006666666666666667,0.04,0.22,1.88,9.57,11.744749376
1671151315.215459,0,-182.53900146484375,196.238037109375,44.553466796875,1,-54.10870361328125,116.052978515625,-317.57763671875,2,0.584716796875,116.832763671875,-316.47119140625,3,98.6759033203125,197.14306640625,54.0966796875,0.012614333860978865,0.011798958668444109,7.3,7.3,-0.0033333333333333335,-0.006666666666666667,0.04,0.22,1.88,9.57,11.744749376
1671151315.2254052,0,-182.50616455078125,196.21875,44.927490234375,1,-54.20294189453125,116.119140625,-317.314208984375,2,0.4971923828125,116.90869140625,-316.201416015625,3,98.6904296875,197.15185546875,54.389892578125,0.012614333860978865,0.011798958668444109,7.3,7.3,-0.0033333333333333335,-0.006666666666666667,0.04,0.22,1.88,9.57,11.744749376
1671151315.2353919,0,-182.680908203125,196.09033203125,45.268798828125,1,-54.2698974609375,116.080078125,-317.060302734375,2,0.47705078125,116.914306640625,-315.935546875,3,98.716552734375,197.11328125,54.68408203125,0.012614333860978865,0.011798958668444109,7.3,7.3,-0.0033333333333333335,-0.006666666666666667,0.04,0.22,1.88,9.57,11.744749376
1671151315.2453976,0,-182.615478515625,196.16162109375,45.53369140625,1,-54.291748046875,116.09228515625,-316.758544921875,2,0.473388671875,116.96533203125,-315.659423828125,3,98.6751708984375,197.151123046875,54.94677734375,0.012614333860978865,0.011798958668444109,7.3,7.3,-0.0033333333333333335,-0.006666666666666667,0.04,0.22,1.88,9.57,11.744749376
1671151315.2554178,0,-182.6922607421875,196.051513671875,45.890625,1,-54.29833984375,116.1962890625,-316.4287109375,2,0.4666748046875,116.994140625,-315.36767578125,3,98.749755859375,197.147216796875,55.2255859375,0.027818683039421067,0.029785176150828423,7.3,7.3,-0.005555555555555556,0.02,-0.0044444444444444444,-0.47,1.73,9.68,11.771097664000001
1671151315.2655013,0,-182.627685546875,196.16015625,46.152587890625,1,-54.33990478515625,116.149658203125,-316.1689453125,2,0.4208984375,117.03564453125,-315.14892578125,3,98.6041259765625,197.13232421875,55.5517578125,0.027818683039421067,0.029785176150828423,7.3,7.3,-0.005555555555555556,0.02,-0.0044444444444444444,-0.47,1.73,9.68,11.771097664000001
1671151315.2754226,0,-182.67169189453125,196.18701171875,46.462890625,1,-54.37103271484375,116.188720703125,-315.880859375,2,0.415283203125,117.11572265625,-314.888427734375,3,98.6942138671875,197.103271484375,55.819091796875,0.027818683039421067,0.029785176150828423,7.3,7.3,-0.005555555555555556,0.02,-0.0044444444444444444,-0.47,1.73,9.68,11.771097664000001
1671151315.2853904,0,-182.6734619140625,196.152099609375,46.686767578125,1,-54.4384765625,116.093017578125,-315.613525390625,2,0.352294921875,117.07666015625,-314.630859375,3,98.617431640625,197.162353515625,56.064697265625,0.027818683039421067,0.029785176150828423,7.3,7.3,-0.005555555555555556,0.02,-0.0044444444444444444,-0.47,1.73,9.68,11.771097664000001
1671151315.2954025,0,-182.69549560546875,196.103759765625,47.029052734375,1,-54.47637939453125,116.111572265625,-315.2998046875,2,0.242431640625,117.145751953125,-314.398681640625,3,98.6702880859375,197.1708984375,56.288818359375,0.04379044416377834,0.04196784079223006,7.3,7.3,0.2811111111111111,-0.005555555555555556,0.0044444444444444444,-0.18,1.7,9.63,11.761217056
1671151315.3054078,0,-182.6878662109375,196.13330078125,47.340087890625,1,-54.48297119140625,116.189208984375,-315.05126953125,2,0.2093505859375,117.210205078125,-314.1279296875,3,98.6834716796875,197.159912109375,56.55224609375,0.04379044416377834,0.04196784079223006,7.3,7.3,0.2811111111111111,-0.005555555555555556,0.0044444444444444444,-0.18,1.7,9.63,11.761217056
1671151315.3154607,0,-182.74407958984375,196.07421875,47.6220703125,1,-54.49249267578125,116.164306640625,-314.800048828125,2,0.10693359375,117.16015625,-313.824951171875,3,98.6282958984375,197.109375,56.79833984375,0.04379044416377834,0.04196784079223006,7.3,7.3,0.2811111111111111,-0.005555555555555556,0.0044444444444444444,-0.18,1.7,9.63,11.761217056
1671151315.3254027,0,-182.70111083984375,196.1748046875,47.8447265625,1,-54.48846435546875,116.189208984375,-314.518798828125,2,0.16259765625,117.121826171875,-313.605224609375,3,98.6103515625,197.174560546875,57.039794921875,0.04379044416377834,0.04196784079223006,7.3,7.3,0.2811111111111111,-0.005555555555555556,0.0044444444444444444,-0.18,1.7,9.63,11.761217056
1671151315.3353996,0,-182.68359375,196.155029296875,48.082275390625,1,-54.56121826171875,116.178466796875,-314.292236328125,2,0.0125732421875,116.985595703125,-313.284912109375,3,98.663330078125,197.18896484375,57.226806640625,0.04379044416377834,0.04196784079223006,7.3,7.3,0.2811111111111111,-0.005555555555555556,0.0044444444444444444,-0.18,1.7,9.63,11.761217056
1671151315.3453968,0,-182.72821044921875,196.13330078125,48.42724609375,1,-54.6907958984375,116.276123046875,-314.040771484375,2,-0.08642578125,116.996826171875,-312.975341796875,3,98.651123046875,197.18896484375,57.451171875,0.060145911261093137,0.05650070451799658,7.3,7.3,0.0033333333333333335,-0.0077777777777777776,0.016666666666666666,-0.04,1.79,9.56,11.738162304000001
1671151315.355396,0,-182.78900146484375,196.0234375,48.80224609375,1,-54.74200439453125,116.297119140625,-313.723876953125,2,-0.193359375,117.037109375,-312.76318359375,3,98.5888671875,197.184814453125,57.7001953125,0.060145911261093137,0.05650070451799658,7.3,7.3,0.0033333333333333335,-0.0077777777777777776,0.016666666666666666,-0.04,1.79,9.56,11.738162304000001
1671151315.3654008,0,-182.73052978515625,196.041259765625,49.1201171875,1,-54.78765869140625,116.297607421875,-313.447509765625,2,-0.2596435546875,117.010009765625,-312.5185546875,3,98.5894775390625,197.134521484375,57.9248046875,0.060145911261093137,0.05650070451799658,7.3,7.3,0.0033333333333333335,-0.0077777777777777776,0.016666666666666666,-0.04,1.79,9.56,11.738162304000001
1671151315.3754272,0,-182.69989013671875,196.097412109375,49.394287109375,1,-54.87628173828125,116.377197265625,-313.158203125,2,-0.3236083984375,117.060546875,-312.24755859375,3,98.586181640625,197.215087890625,58.18115234375,0.060145911261093137,0.05650070451799658,7.3,7.3,0.0033333333333333335,-0.0077777777777777776,0.016666666666666666,-0.04,1.79,9.56,11.738162304000001
1671151315.3854153,0,-182.7490234375,196.061279296875,49.73193359375,1,-54.93536376953125,116.312255859375,-312.842041015625,2,-0.385498046875,117.048583984375,-312.016845703125,3,98.6571044921875,197.258056640625,58.478515625,0.060145911261093137,0.05650070451799658,7.3,7.3,0.0033333333333333335,-0.0077777777777777776,0.016666666666666666,-0.04,1.79,9.56,11.738162304000001
1671151315.3954077,0,-182.71234130859375,196.1142578125,50.005615234375,1,-55.01324462890625,116.255615234375,-312.568603515625,2,-0.40478515625,117.131591796875,-311.746826171875,3,98.6414794921875,197.26953125,58.775634765625,0.077892312510379,0.06983448707827082,7.3,7.3,-0.0011111111111111111,-0.0022222222222222222,0.022222222222222223,-0.19,1.95,9.63,11.75792352
1671151315.4054546,0,-182.749267578125,196.181396484375,50.311279296875,1,-55.0682373046875,116.267333984375,-312.252197265625,2,-0.4654541015625,117.122802734375,-311.481689453125,3,98.65087890625,197.183349609375,58.997314453125,0.077892312510379,0.06983448707827082,7.3,7.3,-0.0011111111111111111,-0.0022222222222222222,0.022222222222222223,-0.19,1.95,9.63,11.75792352
1671151315.4155133,0,-182.8021240234375,196.1875,50.62841796875,1,-55.147216796875,116.2314453125,-311.98583984375,2,-0.48828125,117.1513671875,-311.12744140625,3,98.5338134765625,197.240966796875,59.327392578125,0.077892312510379,0.06983448707827082,7.3,7.3,-0.0011111111111111111,-0.0022222222222222222,0.022222222222222223,-0.19,1.95,9.63,11.75792352
1671151315.4254813,0,-182.79876708984375,196.125732421875,50.9453125,1,-55.25335693359375,116.180419921875,-311.721435546875,2,-0.5093994140625,117.228271484375,-310.887451171875,3,98.60888671875,197.2275390625,59.625244140625,0.077892312510379,0.06983448707827082,7.3,7.3,-0.0011111111111111111,-0.0022222222222222222,0.022222222222222223,-0.19,1.95,9.63,11.75792352
1671151315.4355102,0,-182.81524658203125,196.1748046875,51.174560546875,1,-55.282958984375,116.11376953125,-311.410400390625,2,-0.60400390625,117.132080078125,-310.64794921875,3,98.598876953125,197.279052734375,59.8525390625,0.077892312510379,0.06983448707827082,7.3,7.3,-0.0011111111111111111,-0.0022222222222222222,0.022222222222222223,-0.19,1.95,9.63,11.75792352
1671151315.4455047,0,-182.7880859375,196.18896484375,51.46875,1,-55.3782958984375,116.11865234375,-311.1474609375,2,-0.6878662109375,117.224853515625,-310.29833984375,3,98.495361328125,197.3173828125,60.11083984375,0.09583056674614361,0.08441531405065704,14.0,14.0,0.0033333333333333335,0.0033333333333333335,0.006666666666666667,-0.22,1.86,9.62,11.764510592
1671151315.4554203,0,-182.83929443359375,196.20166015625,51.795654296875,1,-55.51519775390625,116.16796875,-310.84912109375,2,-0.7408447265625,117.212890625,-310.018310546875,3,98.49853515625,197.286865234375,60.403564453125,0.09583056674614361,0.08441531405065704,14.0,14.0,0.0033333333333333335,0.0033333333333333335,0.006666666666666667,-0.22,1.86,9.62,11.764510592
1671151315.4654577,0,-182.906494140625,196.349609375,52.072021484375,1,-55.553955078125,116.09912109375,-310.486572265625,2,-0.860107421875,117.11865234375,-309.652587890625,3,98.5198974609375,197.3154296875,60.59765625,0.09583056674614361,0.08441531405065704,14.0,14.0,0.0033333333333333335,0.0033333333333333335,0.006666666666666667,-0.22,1.86,9.62,11.764510592
1671151315.475434,0,-182.9228515625,196.38671875,52.46875,1,-55.6846923828125,116.110595703125,-310.070556640625,2,-0.95654296875,117.10205078125,-309.235107421875,3,98.533203125,197.382568359375,60.930908203125,0.09583056674614361,0.08441531405065704,14.0,14.0,0.0033333333333333335,0.0033333333333333335,0.006666666666666667,-0.22,1.86,9.62,11.764510592
1671151315.4853828,0,-182.928955078125,196.34765625,52.931640625,1,-55.70721435546875,116.023193359375,-309.55419921875,2,-1.0572509765625,117.031494140625,-308.6796875,3,98.464111328125,197.312744140625,61.470458984375,0.09583056674614361,0.08441531405065704,14.0,14.0,0.0033333333333333335,0.0033333333333333335,0.006666666666666667,-0.22,1.86,9.62,11.764510592
1671151315.495406,0,-183.05975341796875,196.310302734375,53.6171875,1,-55.79449462890625,115.994384765625,-308.8681640625,2,-1.026611328125,117.15087890625,-308.0732421875,3,98.4676513671875,197.258544921875,62.17919921875,0.09583056674614361,0.08441531405065704,14.0,14.0,0.0033333333333333335,0.0033333333333333335,0.006666666666666667,-0.22,1.86,9.62,11.764510592
1671151315.50539,0,-183.02008056640625,196.299560546875,54.422607421875,1,-55.88775634765625,116.052734375,-308.258056640625,2,-1.076171875,117.160400390625,-307.393798828125,3,98.357666015625,197.314697265625,62.77587890625,0.11472808591430206,0.10307301698571703,25.2,25.2,0.0022222222222222222,-0.006666666666666667,0.01888888888888889,-0.08,1.87,9.53,11.744749376
1671151315.5154629,0,-183.1162109375,196.3447265625,55.21630859375,1,-55.96917724609375,115.99267578125,-307.42041015625,2,-1.16259765625,117.151611328125,-306.6494140625,3,98.343994140625,197.345458984375,63.552490234375,0.11472808591430206,0.10307301698571703,25.2,25.2,0.0022222222222222222,-0.006666666666666667,0.01888888888888889,-0.08,1.87,9.53,11.744749376
1671151315.525488,0,-183.23828125,196.314697265625,56.048583984375,1,-55.96759033203125,116.044189453125,-306.391357421875,2,-1.081298828125,117.2353515625,-305.754150390625,3,98.4464111328125,197.517578125,64.40478515625,0.11472808591430206,0.10307301698571703,25.2,25.2,0.0022222222222222222,-0.006666666666666667,0.01888888888888889,-0.08,1.87,9.53,11.744749376
1671151315.535511,0,-183.1761474609375,196.330078125,57.03662109375,1,-56.08306884765625,116.041259765625,-305.421630859375,2,-1.272705078125,117.228759765625,-304.74658203125,3,98.5087890625,197.531982421875,65.31982421875,0.11472808591430206,0.10307301698571703,25.2,25.2,0.0022222222222222222,-0.006666666666666667,0.01888888888888889,-0.08,1.87,9.53,11.744749376
1671151315.5454452,0,-183.08660888671875,196.2724609375,58.45751953125,1,-56.09283447265625,116.129638671875,-304.0693359375,2,-1.35498046875,117.184814453125,-303.313232421875,3,98.5274658203125,197.454345703125,66.659423828125,0.14916569698724055,0.13487264949457248,37.2,37.2,0.0022222222222222222,0.06444444444444444,0.008888888888888889,-2.56,1.69,10.15,11.731575232
1671151315.5555546,0,-183.101318359375,196.232666015625,60.101318359375,1,-56.12353515625,116.23583984375,-302.545166015625,2,-1.2264404296875,117.34033203125,-301.89013671875,3,98.376953125,197.47998046875,68.22265625,0.14916569698724055,0.13487264949457248,37.2,37.2,0.0022222222222222222,0.06444444444444444,0.008888888888888889,-2.56,1.69,10.15,11.731575232
1671151315.5654528,0,-183.02703857421875,196.37548828125,61.625732421875,1,-56.17413330078125,116.198486328125,-300.97119140625,2,-1.32080078125,117.4013671875,-300.327880859375,3,98.380859375,197.341796875,69.802001953125,0.14916569698724055,0.13487264949457248,37.2,37.2,0.0022222222222222222,0.06444444444444444,0.008888888888888889,-2.56,1.69,10.15,11.731575232
1671151315.5754848,0,-182.89410400390625,196.365478515625,63.744384765625,1,-56.2138671875,116.300048828125,-298.877685546875,2,-1.6187744140625,117.206787109375,-298.123046875,3,98.4642333984375,197.268798828125,71.789306640625,0.14916569698724055,0.13487264949457248,37.2,37.2,0.0022222222222222222,0.06444444444444444,0.008888888888888889,-2.56,1.69,10.15,11.731575232
1671151315.5854847,0,-182.9403076171875,196.337158203125,65.7900390625,1,-56.3555908203125,116.14794921875,-296.93017578125,2,-1.66796875,117.183349609375,-296.19970703125,3,98.416748046875,197.27783203125,73.813232421875,0.14916569698724055,0.13487264949457248,37.2,37.2,0.0022222222222222222,0.06444444444444444,0.008888888888888889,-2.56,1.69,10.15,11.731575232
1671151315.5955493,0,-182.96112060546875,196.3544921875,68.390625,1,-56.61297607421875,116.239990234375,-294.543212890625,2,-1.7613525390625,117.367919921875,-293.931640625,3,98.4794921875,197.278564453125,76.2197265625,0.14916569698724055,0.13487264949457248,37.2,37.2,0.0022222222222222222,0.06444444444444444,0.008888888888888889,-2.56,1.69,10.15,11.731575232
1671151315.605546,0,-183.04913330078125,196.3671875,70.822998046875,1,-56.8310546875,116.211669921875,-292.109130859375,2,-1.869873046875,117.307861328125,-291.6025390625,3,98.241943359375,197.287841796875,78.62890625,0.22307706002818514,0.2306552529940964,48.4,48.4,-0.017777777777777778,-0.013333333333333334,0.006666666666666667,2.74,2.01,9.71,11.711814016
1671151315.615492,0,-183.11907958984375,196.3896484375,73.062255859375,1,-56.9285888671875,116.165771484375,-289.755126953125,2,-1.9957275390625,117.231689453125,-289.219970703125,3,98.2486572265625,197.27490234375,80.82763671875,0.22307706002818514,0.2306552529940964,48.4,48.4,-0.017777777777777778,-0.013333333333333334,0.006666666666666667,2.74,2.01,9.71,11.711814016
1671151315.6253867,0,-183.19085693359375,196.40283203125,75.818115234375,1,-57.0645751953125,116.24267578125,-287.059814453125,2,-2.1380615234375,117.374755859375,-286.53125,3,98.170166015625,197.353271484375,83.458740234375,0.22307706002818514,0.2306552529940964,48.4,48.4,-0.017777777777777778,-0.013333333333333334,0.006666666666666667,2.74,2.01,9.71,11.711814016
1671151315.6354003,0,-183.18212890625,196.360595703125,78.476318359375,1,-57.1607666015625,116.049072265625,-284.40625,2,-2.343994140625,117.263916015625,-283.952392578125,3,98.17431640625,197.23779296875,86.1015625,0.22307706002818514,0.2306552529940964,48.4,48.4,-0.017777777777777778,-0.013333333333333334,0.006666666666666667,2.74,2.01,9.71,11.711814016
1671151315.6453652,0,-183.30975341796875,196.19580078125,81.755859375,1,-57.39739990234375,116.1298828125,-281.28076171875,2,-2.4542236328125,117.166015625,-280.74365234375,3,98.04833984375,197.251220703125,89.24072265625,0.3434648090436108,0.34053905099980963,55.9,55.9,-0.01,0.06222222222222222,0.04888888888888889,1.15,2.55,9.55,11.662410976
1671151315.6554735,0,-183.3934326171875,196.224853515625,84.730224609375,1,-57.6224365234375,116.2763671875,-278.275634765625,2,-2.62744140625,117.37939453125,-277.8994140625,3,97.9310302734375,197.116943359375,92.176025390625,0.3434648090436108,0.34053905099980963,55.9,55.9,-0.01,0.06222222222222222,0.04888888888888889,1.15,2.55,9.55,11.662410976
1671151315.6654463,0,-183.6658935546875,196.401123046875,88.2255859375,1,-57.74932861328125,116.2001953125,-274.863525390625,2,-2.8310546875,117.3642578125,-274.364013671875,3,97.787109375,197.0791015625,95.609130859375,0.3434648090436108,0.34053905099980963,55.9,55.9,-0.01,0.06222222222222222,0.04888888888888889,1.15,2.55,9.55,11.662410976
1671151315.6754088,0,-183.76220703125,196.446044921875,91.918701171875,1,-57.9320068359375,116.3212890625,-271.216796875,2,-3.045654296875,117.358642578125,-270.867919921875,3,97.80078125,197.265869140625,99.170654296875,0.3434648090436108,0.34053905099980963,55.9,55.9,-0.01,0.06222222222222222,0.04888888888888889,1.15,2.55,9.55,11.662410976
1671151315.6854777,0,-183.67828369140625,196.45263671875,95.440185546875,1,-58.13360595703125,116.234130859375,-267.810546875,2,-3.2230224609375,117.402099609375,-267.4814453125,3,97.7470703125,197.1689453125,102.554443359375,0.3434648090436108,0.34053905099980963,55.9,55.9,-0.01,0.06222222222222222,0.04888888888888889,1.15,2.55,9.55,11.662410976
1671151315.6955395,0,-183.50115966796875,196.350341796875,99.398193359375,1,-58.3994140625,116.318115234375,-263.9697265625,2,-3.5308837890625,117.494873046875,-263.595703125,3,97.64013671875,197.1865234375,106.342041015625,0.3434648090436108,0.34053905099980963,55.9,55.9,-0.01,0.06222222222222222,0.04888888888888889,1.15,2.55,9.55,11.662410976
1671151315.7053983,0,-183.658447265625,196.30029296875,103.357666015625,1,-58.69427490234375,116.42578125,-260.04931640625,2,-3.8369140625,117.412353515625,-259.70947265625,3,97.55908203125,197.09814453125,110.27734375,0.5161324968745002,0.5107606132530947,62.7,62.7,0.0077777777777777776,0.042222222222222223,0.005555555555555556,1.55,0.25,8.76,11.721694624000001
1671151315.715445,0,-183.6541748046875,196.36083984375,107.031005859375,1,-58.818115234375,116.280517578125,-256.4599609375,2,-4.0670166015625,117.290283203125,-256.05615234375,3,97.4005126953125,197.111083984375,113.802978515625,0.5161324968745002,0.5107606132530947,62.7,62.7,0.0077777777777777776,0.042222222222222223,0.005555555555555556,1.55,0.25,8.76,11.721694624000001
1671151315.72544,0,-183.703369140625,196.361572265625,111.0634765625,1,-59.20733642578125,116.3046875,-252.303955078125,2,-4.403076171875,117.310302734375,-251.7412109375,3,97.35302734375,197.234130859375,117.69384765625,0.5161324968745002,0.5107606132530947,62.7,62.7,0.0077777777777777776,0.042222222222222223,0.005555555555555556,1.55,0.25,8.76,11.721694624000001
1671151315.7354434,0,-183.7733154296875,196.3408203125,114.9296875,1,-59.30987548828125,116.142822265625,-248.5283203125,2,-4.4573974609375,117.382568359375,-248.158203125,3,97.1478271484375,197.18310546875,121.441162109375,0.5161324968745002,0.5107606132530947,62.7,62.7,0.0077777777777777776,0.042222222222222223,0.005555555555555556,1.55,0.25,8.76,11.721694624000001
1671151315.74547,0,-183.8436279296875,196.3515625,119.350341796875,1,-59.66986083984375,116.048828125,-244.3642578125,2,-4.7393798828125,117.357421875,-244.1552734375,3,97.303955078125,196.89794921875,125.740966796875,0.5161324968745002,0.5107606132530947,62.7,62.7,0.0077777777777777776,0.042222222222222223,0.005555555555555556,1.55,0.25,8.76,11.721694624000001
1671151315.7553935,0,-184.24859619140625,196.421875,123.873046875,1,-59.90380859375,116.323974609375,-239.797119140625,2,-4.8983154296875,117.367919921875,-239.69677734375,3,97.07177734375,196.978515625,130.260498046875,0.7251563256431158,0.7169066472245289,67.9,67.9,-0.005555555555555556,0.05555555555555555,0.03111111111111111,-1.25,2.07,7.27,11.711814016
1671151315.7654676,0,-184.0838623046875,196.463134765625,128.00634765625,1,-60.17230224609375,116.146484375,-235.79736328125,2,-5.3466796875,117.36181640625,-235.649658203125,3,96.8770751953125,196.83154296875,134.13427734375,0.7251563256431158,0.7169066472245289,67.9,67.9,-0.005555555555555556,0.05555555555555555,0.03111111111111111,-1.25,2.07,7.27,11.711814016
1671151315.7754111,0,-184.21466064453125,196.509521484375,132.765869140625,1,-60.4248046875,116.136474609375,-231.102783203125,2,-5.4906005859375,117.311279296875,-231.085205078125,3,97.080810546875,197.161865234375,138.563232421875,0.7251563256431158,0.7169066472245289,67.9,67.9,-0.005555555555555556,0.05555555555555555,0.03111111111111111,-1.25,2.07,7.27,11.711814016
1671151315.785441,0,-184.06744384765625,196.468017578125,137.046142578125,1,-60.74652099609375,116.146484375,-226.883056640625,2,-5.8182373046875,117.264892578125,-226.856689453125,3,96.8515625,197.190185546875,142.78515625,0.7251563256431158,0.7169066472245289,67.9,67.9,-0.005555555555555556,0.05555555555555555,0.03111111111111111,-1.25,2.07,7.27,11.711814016
1671151315.795438,0,-184.078857421875,196.4541015625,141.962158203125,1,-61.04840087890625,115.926025390625,-222.066162109375,2,-6.08837890625,117.2001953125,-222.05615234375,3,96.58251953125,197.19970703125,147.431640625,0.7251563256431158,0.7169066472245289,67.9,67.9,-0.005555555555555556,0.05555555555555555,0.03111111111111111,-1.25,2.07,7.27,11.711814016
1671151315.8054743,0,-184.1585693359375,196.5556640625,146.39990234375,1,-61.3779296875,116.016845703125,-217.7158203125,2,-6.479736328125,117.07177734375,-217.77099609375,3,96.8245849609375,197.197509765625,151.63232421875,0.7251563256431158,0.7169066472245289,67.9,67.9,-0.005555555555555556,0.05555555555555555,0.03111111111111111,-1.25,2.07,7.27,11.711814016
1671151315.8155696,0,-184.42626953125,196.658447265625,151.26611328125,1,-61.7586669921875,115.908447265625,-212.896240234375,2,-6.7518310546875,116.949462890625,-213.10107421875,3,96.5509033203125,197.179443359375,156.44775390625,0.7251563256431158,0.7169066472245289,67.9,67.9,-0.005555555555555556,0.05555555555555555,0.03111111111111111,-1.25,2.07,7.27,11.711814016
1671151315.825411,0,-184.39715576171875,196.50048828125,156.32421875,1,-61.9212646484375,115.96533203125,-207.86572265625,2,-6.872802734375,117.038330078125,-208.094970703125,3,96.6024169921875,197.180419921875,161.278564453125,0.9558595418838319,0.9219974897703296,72.4,72.4,-0.014444444444444444,0.27,0.05444444444444444,-1.57,0.99,11.28,11.744749376
1671151315.8354163,0,-184.25250244140625,196.348876953125,160.771240234375,1,-62.2464599609375,115.940673828125,-203.59521484375,2,-7.276611328125,116.96533203125,-203.716552734375,3,96.676513671875,197.084716796875,165.571044921875,0.9558595418838319,0.9219974897703296,72.4,72.4,-0.014444444444444444,0.27,0.05444444444444444,-1.57,0.99,11.28,11.744749376
1671151315.8454478,0,-184.37762451171875,196.38134765625,165.851806640625,1,-62.62548828125,115.746826171875,-198.433349609375,2,-7.55078125,116.983642578125,-198.763916015625,3,96.47216796875,197.040283203125,170.513427734375,0.9558595418838319,0.9219974897703296,72.4,72.4,-0.014444444444444444,0.27,0.05444444444444444,-1.57,0.99,11.28,11.744749376
1671151315.8557038,0,-184.4771728515625,196.601806640625,171.01513671875,1,-62.938232421875,115.852294921875,-193.40771484375,2,-8.0206298828125,116.804443359375,-193.548583984375,3,96.781494140625,197.23828125,175.37744140625,1.2973578578160352,1.2644550706349271,73.2,73.2,0.023333333333333334,-0.01,0.06,0.2,2.47,8.21,11.583366112
1671151315.8654492,0,-184.46795654296875,196.689697265625,175.68408203125,1,-63.26605224609375,115.752197265625,-188.83544921875,2,-8.3616943359375,116.926025390625,-189.028564453125,3,96.7476806640625,197.192138671875,179.759521484375,1.2973578578160352,1.2644550706349271,73.2,73.2,0.023333333333333334,-0.01,0.06,0.2,2.47,8.21,11.583366112
1671151315.875492,0,-184.45465087890625,196.626953125,181.01611328125,1,-63.6025390625,115.8046875,-183.695068359375,2,-8.556884765625,116.931396484375,-183.93115234375,3,97.1275634765625,197.251708984375,184.925048828125,1.2973578578160352,1.2644550706349271,73.2,73.2,0.023333333333333334,-0.01,0.06,0.2,2.47,8.21,11.583366112
1671151315.8854587,0,-184.44525146484375,196.5966796875,185.75,1,-63.606689453125,115.739990234375,-179.192626953125,2,-8.9124755859375,116.8466796875,-179.259765625,3,97.19580078125,197.281494140625,189.4365234375,1.2973578578160352,1.2644550706349271,73.2,73.2,0.023333333333333334,-0.01,0.06,0.2,2.47,8.21,11.583366112
1671151315.8954325,0,-184.77484130859375,196.736083984375,191.158935546875,1,-64.0997314453125,115.894287109375,-173.737548828125,2,-9.134033203125,116.7978515625,-173.909912109375,3,96.8331298828125,197.08056640625,194.789794921875,1.2973578578160352,1.2644550706349271,73.2,73.2,0.023333333333333334,-0.01,0.06,0.2,2.47,8.21,11.583366112
1671151315.9053907,0,-184.8272705078125,196.268798828125,196.81884765625,1,-64.23138427734375,116.173095703125,-168.54541015625,2,-9.5850830078125,116.674560546875,-168.64208984375,3,96.6875,196.933837890625,200.0283203125,1.4982279346593035,1.4618238304749573,73.2,73.2,0.028888888888888888,-0.05444444444444444,0.07222222222222222,1.67,2.46,6.84,11.794152416000001
1671151315.9154797,0,-184.56939697265625,196.4150390625,201.7490234375,1,-64.70819091796875,116.20166015625,-163.8271484375,2,-9.799560546875,116.760986328125,-163.88330078125,3,96.7037353515625,196.89697265625,204.79052734375,1.4982279346593035,1.4618238304749573,73.2,73.2,0.028888888888888888,-0.05444444444444444,0.07222222222222222,1.67,2.46,6.84,11.794152416000001
1671151315.9255633,0,-184.65081787109375,196.394775390625,207.262939453125,1,-65.096435546875,116.148193359375,-158.355712890625,2,-10.2574462890625,116.758056640625,-158.55712890625,3,96.5426025390625,196.945068359375,210.04345703125,1.4982279346593035,1.4618238304749573,73.2,73.2,0.028888888888888888,-0.05444444444444444,0.07222222222222222,1.67,2.46,6.84,11.794152416000001
1671151315.9354973,0,-184.62567138671875,196.3818359375,212.17919921875,1,-65.36846923828125,116.102783203125,-153.638916015625,2,-10.60650634765625,116.629638671875,-153.76123046875,3,96.63671875,196.861328125,214.70263671875,1.4982279346593035,1.4618238304749573,73.2,73.2,0.028888888888888888,-0.05444444444444444,0.07222222222222222,1.67,2.46,6.84,11.794152416000001
1671151315.9455175,0,-184.7518310546875,196.090087890625,217.746826171875,1,-65.636962890625,116.016357421875,-148.226318359375,2,-10.781982421875,116.569091796875,-148.48779296875,3,96.6573486328125,196.765380859375,219.96142578125,1.7820744281546377,1.7191466485896023,73.2,73.2,-0.006666666666666667,0.08777777777777777,0.07555555555555556,-1.9,0.52,11.42,11.718401088
1671151315.9556015,0,-185.0169677734375,195.865234375,223.27783203125,1,-66.09295654296875,116.123046875,-142.845947265625,2,-11.2882080078125,116.60546875,-143.05322265625,3,96.6600341796875,196.80615234375,225.115966796875,1.7820744281546377,1.7191466485896023,73.2,73.2,-0.006666666666666667,0.08777777777777777,0.07555555555555556,-1.9,0.52,11.42,11.718401088
1671151315.9654686,0,-185.01702880859375,195.9638671875,228.316162109375,1,-66.15045166015625,116.054443359375,-138.153076171875,2,-11.832763671875,116.507080078125,-138.1953125,3,96.433837890625,196.7431640625,229.863525390625,1.7820744281546377,1.7191466485896023,73.2,73.2,-0.006666666666666667,0.08777777777777777,0.07555555555555556,-1.9,0.52,11.42,11.718401088
1671151315.9754016,0,-184.77362060546875,196.33447265625,233.50341796875,1,-66.36212158203125,115.888916015625,-132.9404296875,2,-12.32696533203125,116.215576171875,-132.920654296875,3,96.314453125,196.8291015625,235.04443359375,1.7820744281546377,1.7191466485896023,73.2,73.2,-0.006666666666666667,0.08777777777777777,0.07555555555555556,-1.9,0.52,11.42,11.718401088
1671151315.985398,0,-184.95556640625,196.27001953125,238.42138671875,1,-66.57061767578125,115.418701171875,-127.970458984375,2,-12.58929443359375,116.129150390625,-128.09912109375,3,96.4698486328125,197.0810546875,239.658935546875,1.7820744281546377,1.7191466485896023,73.2,73.2,-0.006666666666666667,0.08777777777777777,0.07555555555555556,-1.9,0.52,11.42,11.718401088
1671151315.9954064,0,-185.19732666015625,195.731201171875,244.08984375,1,-66.8614501953125,115.686279296875,-122.64794921875,2,-12.876708984375,116.08837890625,-122.74951171875,3,96.319091796875,196.892822265625,244.917724609375,1.7820744281546377,1.7191466485896023,73.2,73.2,-0.006666666666666667,0.08777777777777777,0.07555555555555556,-1.9,0.52,11.42,11.718401088
1671151316.005408,0,-185.3045654296875,195.85107421875,249.03125,1,-67.01654052734375,115.77978515625,-117.817626953125,2,-13.1153564453125,116.098388671875,-117.830810546875,3,96.38525390625,196.69189453125,249.661865234375,1.7820744281546377,1.7191466485896023,73.2,73.2,-0.006666666666666667,0.08777777777777777,0.07555555555555556,-1.9,0.52,11.42,11.718401088
1671151316.015566,0,-184.8319091796875,195.88916015625,254.456787109375,1,-67.0775146484375,115.554443359375,-112.579345703125,2,-13.26641845703125,116.20849609375,-112.472900390625,3,96.4412841796875,196.6259765625,255.158447265625,2.0877921621085513,2.0185332339897166,74.7,74.7,0.017777777777777778,0.042222222222222223,0.09444444444444444,-0.67,1.78,8.83,11.721694624000001
1671151316.0254965,0,-184.73223876953125,195.94677734375,259.90283203125,1,-67.37884521484375,115.65185546875,-107.245849609375,2,-13.5328369140625,116.242431640625,-107.0859375,3,96.7999267578125,196.667724609375,260.513916015625,2.0877921621085513,2.0185332339897166,74.7,74.7,0.017777777777777778,0.042222222222222223,0.09444444444444444,-0.67,1.78,8.83,11.721694624000001
1671151316.0355065,0,-184.67059326171875,195.973388671875,264.896240234375,1,-67.79345703125,115.745361328125,-102.111083984375,2,-13.876953125,116.11328125,-102.22802734375,3,96.7388916015625,196.730712890625,265.296630859375,2.0877921621085513,2.0185332339897166,74.7,74.7,0.017777777777777778,0.042222222222222223,0.09444444444444444,-0.67,1.78,8.83,11.721694624000001
1671151316.0455163,0,-185.21905517578125,195.898193359375,270.551513671875,1,-68.1729736328125,115.75634765625,-96.60009765625,2,-14.1556396484375,116.140380859375,-96.804931640625,3,96.4322509765625,196.54931640625,270.627685546875,2.0877921621085513,2.0185332339897166,74.7,74.7,0.017777777777777778,0.042222222222222223,0.09444444444444444,-0.67,1.78,8.83,11.721694624000001
1671151316.055605,0,-184.95257568359375,195.897705078125,276.072998046875,1,-68.396728515625,115.593017578125,-91.031982421875,2,-14.41668701171875,116.155517578125,-91.302978515625,3,96.471923828125,196.408203125,275.962158203125,2.389097277373453,2.3293350720853176,74.7,74.7,-0.02666666666666667,0.10666666666666667,0.05444444444444444,-0.6,1.91,10.16,11.728281696
1671151316.0654523,0,-184.5032958984375,195.825927734375,281.06201171875,1,-68.617431640625,115.510498046875,-86.0361328125,2,-14.6248779296875,116.05908203125,-86.53076171875,3,96.46728515625,196.397216796875,280.7265625,2.389097277373453,2.3293350720853176,74.7,74.7,-0.02666666666666667,0.10666666666666667,0.05444444444444444,-0.6,1.91,10.16,11.728281696
1671151316.0754595,0,-184.7928466796875,195.7578125,286.794677734375,1,-68.810302734375,115.575439453125,-80.541748046875,2,-14.8763427734375,116.11376953125,-80.970458984375,3,96.5230712890625,196.60400390625,286.11083984375,2.389097277373453,2.3293350720853176,74.7,74.7,-0.02666666666666667,0.10666666666666667,0.05444444444444444,-0.6,1.91,10.16,11.728281696
1671151316.0854466,0,-184.8397216796875,195.735107421875,292.3486328125,1,-68.95599365234375,115.535888671875,-75.023681640625,2,-15.14178466796875,116.029052734375,-75.514404296875,3,96.4603271484375,196.59619140625,291.56494140625,2.389097277373453,2.3293350720853176,74.7,74.7,-0.02666666666666667,0.10666666666666667,0.05444444444444444,-0.6,1.91,10.16,11.728281696
1671151316.0953975,0,-185.5054931640625,195.62451171875,297.46337890625,1,-69.5147705078125,115.52001953125,-70.1796875,2,-15.443603515625,115.992919921875,-70.627685546875,3,96.4390869140625,196.547607421875,296.34423828125,2.6761573083923067,2.568527782977719,74.7,74.7,0.02,0.01888888888888889,0.08777777777777777,-0.78,1.3,11.09,11.72498816
1671151316.105413,0,-185.36627197265625,195.71875,302.923583984375,1,-69.64727783203125,115.29248046875,-64.621826171875,2,-15.69012451171875,115.90673828125,-65.1826171875,3,96.5498046875,196.519287109375,301.676025390625,2.6761573083923067,2.568527782977719,74.7,74.7,0.02,0.01888888888888889,0.08777777777777777,-0.78,1.3,11.09,11.72498816
1671151316.1154413,0,-185.2431640625,195.66845703125,307.890625,1,-69.84759521484375,115.3955078125,-59.75732421875,2,-15.950927734375,115.887451171875,-60.34765625,3,96.5601806640625,196.473388671875,306.4404296875,2.6761573083923067,2.568527782977719,74.7,74.7,0.02,0.01888888888888889,0.08777777777777777,-0.78,1.3,11.09,11.72498816
1671151316.1254072,0,-185.20513916015625,195.55126953125,313.390625,1,-70.1884765625,115.354248046875,-54.27392578125,2,-16.197509765625,115.967041015625,-54.85888671875,3,96.6036376953125,196.37158203125,311.848876953125,2.6761573083923067,2.568527782977719,74.7,74.7,0.02,0.01888888888888889,0.08777777777777777,-0.78,1.3,11.09,11.72498816
1671151316.1354125,0,-185.6031494140625,195.649658203125,318.38720703125,1,-70.48101806640625,115.10888671875,-49.4404296875,2,-16.39385986328125,115.593505859375,-50.056884765625,3,96.528564453125,196.42578125,316.630615234375,2.6761573083923067,2.568527782977719,74.7,74.7,0.02,0.01888888888888889,0.08777777777777777,-0.78,1.3,11.09,11.72498816
1671151316.1453643,0,-185.76312255859375,195.662109375,323.94482421875,1,-70.6295166015625,115.23974609375,-43.935791015625,2,-16.60760498046875,115.82568359375,-44.506591796875,3,96.745361328125,196.512451171875,322.06787109375,2.6761573083923067,2.568527782977719,74.7,74.7,0.02,0.01888888888888889,0.08777777777777777,-0.78,1.3,11.09,11.72498816
1671151316.1554058,0,-185.3658447265625,195.088134765625,329.63427734375,1,-70.717529296875,115.006103515625,-38.482421875,2,-16.87939453125,115.6025390625,-38.6494140625,3,96.7064208984375,196.455078125,327.421142578125,2.9642725308367934,2.916788916683299,75.4,75.4,-0.0044444444444444444,-0.034444444444444444,0.07777777777777778,1.97,1.57,11.46,11.728281696
1671151316.1654575,0,-184.8616943359375,195.4501953125,334.54248046875,1,-71.0106201171875,115.11865234375,-33.7314453125,2,-16.938720703125,115.595703125,-34.15478515625,3,96.89013671875,196.318359375,332.284912109375,2.9642725308367934,2.916788916683299,75.4,75.4,-0.0044444444444444444,-0.034444444444444444,0.07777777777777778,1.97,1.57,11.46,11.728281696
1671151316.1754022,0,-184.9703369140625,195.1083984375,340.335205078125,1,-71.100830078125,114.82958984375,-28.13671875,2,-17.02703857421875,115.60693359375,-28.708740234375,3,96.932861328125,196.511474609375,337.569580078125,2.9642725308367934,2.916788916683299,75.4,75.4,-0.0044444444444444444,-0.034444444444444444,0.07777777777777778,1.97,1.57,11.46,11.728281696
1671151316.1853921,0,-185.3701171875,195.395751953125,345.090087890625,1,-71.40521240234375,114.88818359375,-23.011962890625,2,-17.36865234375,115.70166015625,-23.8681640625,3,96.6998291015625,196.901123046875,342.18408203125,3.2722445373818325,3.1254770027255767,75.4,75.4,0.0044444444444444444,-0.05444444444444444,0.06555555555555556,1.01,3.79,8.42,11.705226944
1671151316.1954155,0,-185.4332275390625,194.99267578125,350.6328125,1,-71.68731689453125,114.954345703125,-17.68310546875,2,-17.61895751953125,115.67041015625,-18.526123046875,3,96.6627197265625,196.96240234375,347.404296875,3.2722445373818325,3.1254770027255767,75.4,75.4,0.0044444444444444444,-0.05444444444444444,0.06555555555555556,1.01,3.79,8.42,11.705226944
1671151316.205391,0,-185.02960205078125,194.9443359375,356.27392578125,1,-71.76397705078125,114.818115234375,-12.130615234375,2,-17.76153564453125,115.37841796875,-13.14453125,3,97.50048828125,196.826416015625,352.86865234375,3.2722445373818325,3.1254770027255767,75.4,75.4,0.0044444444444444444,-0.05444444444444444,0.06555555555555556,1.01,3.79,8.42,11.705226944
1671151316.2154095,0,-184.77593994140625,195.00439453125,361.334716796875,1,-72.05316162109375,115.027587890625,-7.233642578125,2,-17.93414306640625,115.56689453125,-8.16943359375,3,97.48681640625,196.748291015625,357.740478515625,3.2722445373818325,3.1254770027255767,75.4,75.4,0.0044444444444444444,-0.05444444444444444,0.06555555555555556,1.01,3.79,8.42,11.705226944
1671151316.2254105,0,-184.6634521484375,195.272216796875,366.856689453125,1,-71.9892578125,114.670166015625,-1.7607421875,2,-18.068603515625,115.5927734375,-2.71484375,3,98.1314697265625,196.61279296875,363.097412109375,3.2722445373818325,3.1254770027255767,75.4,75.4,0.0044444444444444444,-0.05444444444444444,0.06555555555555556,1.01,3.79,8.42,11.705226944
1671151316.2354097,0,-184.9139404296875,195.248779296875,372.07958984375,1,-71.78082275390625,114.519287109375,3.16455078125,2,-18.31427001953125,115.513916015625,2.312744140625,3,98.2744140625,196.183349609375,368.083740234375,3.2722445373818325,3.1254770027255767,75.4,75.4,0.0044444444444444444,-0.05444444444444444,0.06555555555555556,1.01,3.79,8.42,11.705226944
1671151316.2454271,0,-184.17108154296875,195.088623046875,377.663330078125,1,-71.872314453125,114.46240234375,8.730712890625,2,-18.35968017578125,115.5166015625,7.812255859375,3,98.3487548828125,196.089111328125,373.544921875,3.5749885500453256,3.4427059158682165,75.4,75.4,-0.005555555555555556,-0.02666666666666667,0.07222222222222222,1.4,1.78,9.46,11.731575232
1671151316.255414,0,-183.9326171875,195.033935546875,383.21337890625,1,-72.05877685546875,114.425048828125,14.3203125,2,-18.65484619140625,115.484130859375,13.284912109375,3,98.6082763671875,196.200927734375,378.7314453125,3.5749885500453256,3.4427059158682165,75.4,75.4,-0.005555555555555556,-0.02666666666666667,0.07222222222222222,1.4,1.78,9.46,11.731575232
1671151316.265458,0,-183.97515869140625,195.148193359375,388.42626953125,1,-72.34765625,114.41162109375,19.183349609375,2,-18.87591552734375,115.4990234375,18.14697265625,3,98.7525634765625,196.11181640625,383.647216796875,3.5749885500453256,3.4427059158682165,75.4,75.4,-0.005555555555555556,-0.02666666666666667,0.07222222222222222,1.4,1.78,9.46,11.731575232
1671151316.2754097,0,-184.2572021484375,195.580078125,393.8466796875,1,-72.4595947265625,114.40380859375,24.66015625,2,-18.9766845703125,115.429443359375,23.66796875,3,98.578369140625,195.927001953125,389.05908203125,3.5749885500453256,3.4427059158682165,75.4,75.4,-0.005555555555555556,-0.02666666666666667,0.07222222222222222,1.4,1.78,9.46,11.731575232
1671151316.2854133,0,-184.11724853515625,195.445068359375,398.976318359375,1,-72.70623779296875,114.53271484375,29.65234375,2,-19.29376220703125,115.522216796875,28.58203125,3,98.5814208984375,195.9716796875,393.8984375,3.5749885500453256,3.4427059158682165,75.4,75.4,-0.005555555555555556,-0.02666666666666667,0.07222222222222222,1.4,1.78,9.46,11.731575232
1671151316.29541,0,-183.5843505859375,194.76513671875,404.671875,1,-72.89361572265625,114.461181640625,35.052978515625,2,-19.4337158203125,115.54931640625,33.991455078125,3,98.6680908203125,195.85498046875,399.206787109375,3.8761977388169884,3.703146345013141,76.1,76.1,0.06444444444444444,-0.025555555555555557,0.09444444444444444,-0.5,1.46,11.48,11.70852048
1671151316.3053901,0,-183.5426025390625,194.6767578125,410.4091796875,1,-73.06524658203125,114.60107421875,40.826416015625,2,-19.61004638671875,115.6630859375,39.63330078125,3,98.8580322265625,195.7724609375,404.661376953125,3.8761977388169884,3.703146345013141,76.1,76.1,0.06444444444444444,-0.025555555555555557,0.09444444444444444,-0.5,1.46,11.48,11.70852048
1671151316.3154244,0,-183.81988525390625,194.879150390625,415.52880859375,1,-73.19244384765625,114.395751953125,45.47119140625,2,-19.7510986328125,115.593994140625,44.58056640625,3,98.953857421875,195.770751953125,409.545166015625,3.8761977388169884,3.703146345013141,76.1,76.1,0.06444444444444444,-0.025555555555555557,0.09444444444444444,-0.5,1.46,11.48,11.70852048
1671151316.3254027,0,-184.048583984375,194.549560546875,421.162109375,1,-73.31317138671875,114.5888671875,51.303466796875,2,-19.86920166015625,115.73779296875,50.125,3,99.169921875,195.907470703125,414.912353515625,3.8761977388169884,3.703146345013141,76.1,76.1,0.06444444444444444,-0.025555555555555557,0.09444444444444444,-0.5,1.46,11.48,11.70852048
1671151316.3354084,0,-183.50555419921875,194.01708984375,426.415771484375,1,-73.4713134765625,114.525634765625,56.25390625,2,-20.08612060546875,115.686767578125,55.007568359375,3,99.1666259765625,195.811767578125,419.903564453125,3.8761977388169884,3.703146345013141,76.1,76.1,0.06444444444444444,-0.025555555555555557,0.09444444444444444,-0.5,1.46,11.48,11.70852048
1671151316.3453977,0,-183.34033203125,193.944580078125,432.128662109375,1,-73.59063720703125,114.674560546875,61.742431640625,2,-20.13189697265625,115.740478515625,60.537841796875,3,99.3270263671875,195.69775390625,425.204833984375,4.177263037848792,4.002437003920017,76.1,76.1,-0.25666666666666665,0.056666666666666664,0.07222222222222222,-2.31,1.82,11.89,11.718401088
1671151316.3553753,0,-183.212890625,194.616943359375,437.6982421875,1,-73.79302978515625,114.652099609375,67.444091796875,2,-20.352783203125,115.792724609375,66.085693359375,3,99.3572998046875,195.871826171875,430.799072265625,4.177263037848792,4.002437003920017,76.1,76.1,-0.25666666666666665,0.056666666666666664,0.07222222222222222,-2.31,1.82,11.89,11.718401088
1671151316.36547,0,-182.8643798828125,194.2822265625,442.7548828125,1,-73.83636474609375,114.42529296875,72.355712890625,2,-20.49237060546875,115.5703125,71.025634765625,3,99.605712890625,195.75634765625,435.61474609375,4.177263037848792,4.002437003920017,76.1,76.1,-0.25666666666666665,0.056666666666666664,0.07222222222222222,-2.31,1.82,11.89,11.718401088
1671151316.375431,0,-182.59649658203125,194.421875,448.494140625,1,-74.07550048828125,114.416748046875,78.082275390625,2,-20.57989501953125,115.737060546875,76.626708984375,3,99.69775390625,196.023193359375,441.172607421875,4.177263037848792,4.002437003920017,76.1,76.1,-0.25666666666666665,0.056666666666666664,0.07222222222222222,-2.31,1.82,11.89,11.718401088
1671151316.3854196,0,-182.328125,194.400634765625,453.42822265625,1,-74.0972900390625,114.503173828125,82.965576171875,2,-20.7156982421875,115.7158203125,81.516357421875,3,99.8917236328125,195.95703125,445.928466796875,4.177263037848792,4.002437003920017,76.1,76.1,-0.25666666666666665,0.056666666666666664,0.07222222222222222,-2.31,1.82,11.89,11.718401088
1671151316.3954115,0,-182.5238037109375,194.702880859375,459.060546875,1,-74.107177734375,114.410400390625,88.6318359375,2,-20.7421875,115.6328125,87.131103515625,3,100.0982666015625,195.818603515625,451.498779296875,4.485810603353267,4.284988489756619,76.9,76.9,-0.07111111111111111,-0.016666666666666666,0.07111111111111111,-2.61,2.32,5.85,11.72498816
1671151316.4054148,0,-182.244140625,194.259521484375,464.750244140625,1,-74.22967529296875,114.510009765625,94.155517578125,2,-20.83929443359375,115.665283203125,92.574462890625,3,100.35205078125,195.929931640625,456.8447265625,4.485810603353267,4.284988489756619,76.9,76.9,-0.07111111111111111,-0.016666666666666666,0.07111111111111111,-2.61,2.32,5.85,11.72498816
1671151316.415433,0,-181.825927734375,194.4560546875,469.704345703125,1,-74.33001708984375,114.34423828125,99.118896484375,2,-20.93890380859375,115.48974609375,97.548583984375,3,100.5130615234375,195.97265625,461.612548828125,4.485810603353267,4.284988489756619,76.9,76.9,-0.07111111111111111,-0.016666666666666666,0.07111111111111111,-2.61,2.32,5.85,11.72498816
1671151316.4254105,0,-181.8946533203125,194.31103515625,475.382080078125,1,-74.46905517578125,114.482177734375,104.663818359375,2,-21.015869140625,115.675048828125,103.042236328125,3,100.614501953125,195.9833984375,466.98046875,4.485810603353267,4.284988489756619,76.9,76.9,-0.07111111111111111,-0.016666666666666666,0.07111111111111111,-2.61,2.32,5.85,11.72498816
1671151316.4354055,0,-182.12884521484375,194.366455078125,480.484375,1,-74.43658447265625,114.173583984375,109.591796875,2,-21.15777587890625,115.5966796875,108.392822265625,3,100.837646484375,195.909912109375,471.891357421875,4.485810603353267,4.284988489756619,76.9,76.9,-0.07111111111111111,-0.016666666666666666,0.07111111111111111,-2.61,2.32,5.85,11.72498816
1671151316.4454093,0,-181.7730712890625,194.3154296875,486.162109375,1,-74.3704833984375,114.19921875,115.24609375,2,-21.143310546875,115.552978515625,113.678466796875,3,100.9832763671875,195.806396484375,477.4208984375,4.793302977432109,4.566964416633785,76.9,76.9,-0.0044444444444444444,-0.027777777777777776,0.0811111111111111,0.77,1.45,7.92,11.718401088
1671151316.455439,0,-180.82415771484375,194.4951171875,491.75732421875,1,-74.3480224609375,114.028076171875,120.5126953125,2,-21.05474853515625,115.369384765625,119.072021484375,3,101.4112548828125,195.921142578125,482.853515625,4.793302977432109,4.566964416633785,76.9,76.9,-0.0044444444444444444,-0.027777777777777776,0.0811111111111111,0.77,1.45,7.92,11.718401088
1671151316.465441,0,-180.5966796875,194.282470703125,496.9931640625,1,-74.43853759765625,114.285888671875,125.87060546875,2,-21.1610107421875,115.45458984375,124.161376953125,3,101.6319580078125,195.98193359375,487.798583984375,4.793302977432109,4.566964416633785,76.9,76.9,-0.0044444444444444444,-0.027777777777777776,0.0811111111111111,0.77,1.45,7.92,11.718401088
1671151316.4754093,0,-180.73101806640625,194.822265625,502.670166015625,1,-74.60919189453125,114.229248046875,131.609130859375,2,-21.245361328125,115.39599609375,129.74169921875,3,101.8577880859375,195.93994140625,493.343505859375,4.793302977432109,4.566964416633785,76.9,76.9,-0.0044444444444444444,-0.027777777777777776,0.0811111111111111,0.77,1.45,7.92,11.718401088
1671151316.4854279,0,-180.55902099609375,194.689697265625,507.663330078125,1,-74.65740966796875,114.208251953125,136.603759765625,2,-21.364013671875,115.378662109375,134.728515625,3,101.9539794921875,195.88916015625,498.269287109375,4.793302977432109,4.566964416633785,76.9,76.9,-0.0044444444444444444,-0.027777777777777776,0.0811111111111111,0.77,1.45,7.92,11.718401088
1671151316.4953656,0,-179.8582763671875,194.560791015625,513.3935546875,1,-74.82928466796875,114.33984375,142.17431640625,2,-21.2757568359375,115.446533203125,140.30078125,3,102.1888427734375,195.84375,503.697265625,5.114177097317845,4.9117721965827466,78.4,78.4,0.005555555555555556,-0.014444444444444444,0.07444444444444444,0.07,2.13,8.12,11.731575232
1671151316.5053587,0,-179.8114013671875,194.867919921875,519.0185546875,1,-74.86248779296875,114.1240234375,147.7578125,2,-21.51171875,115.351806640625,145.805419921875,3,102.390380859375,196.06982421875,509.09130859375,5.114177097317845,4.9117721965827466,78.4,78.4,0.005555555555555556,-0.014444444444444444,0.07444444444444444,0.07,2.13,8.12,11.731575232
1671151316.5153942,0,-180.0899658203125,195.177490234375,524.16455078125,1,-75.03045654296875,114.280517578125,152.840576171875,2,-21.7552490234375,115.484619140625,150.813232421875,3,102.3370361328125,196.20166015625,513.989013671875,5.114177097317845,4.9117721965827466,78.4,78.4,0.005555555555555556,-0.014444444444444444,0.07444444444444444,0.07,2.13,8.12,11.731575232
1671151316.5253587,0,-179.9942626953125,194.748046875,529.9970703125,1,-75.00238037109375,114.142822265625,158.5107421875,2,-21.67840576171875,115.347900390625,156.4296875,3,102.5604248046875,196.32861328125,519.387451171875,5.114177097317845,4.9117721965827466,78.4,78.4,0.005555555555555556,-0.014444444444444444,0.07444444444444444,0.07,2.13,8.12,11.731575232
1671151316.535391,0,-179.3406982421875,194.44873046875,535.31201171875,1,-75.09832763671875,114.187255859375,163.6298828125,2,-21.81396484375,115.455322265625,161.515625,3,102.8792724609375,196.1142578125,524.4423828125,5.114177097317845,4.9117721965827466,78.4,78.4,0.005555555555555556,-0.014444444444444444,0.07444444444444444,0.07,2.13,8.12,11.731575232
1671151316.5453806,0,-178.84490966796875,194.773681640625,541.11181640625,1,-75.1744384765625,114.255859375,169.354736328125,2,-21.78424072265625,115.411865234375,167.185302734375,3,103.2752685546875,195.787109375,530.10107421875,5.411069593893735,5.16002996108627,78.4,78.4,0.03,-0.03777777777777778,0.09555555555555556,2.01,0.41,10.49,11.718401088
1671151316.555359,0,-178.74517822265625,195.194091796875,546.72607421875,1,-75.01092529296875,114.2646484375,175.146728515625,2,-21.72283935546875,115.473388671875,172.884765625,3,103.28369140625,195.648681640625,535.706298828125,5.411069593893735,5.16002996108627,78.4,78.4,0.03,-0.03777777777777778,0.09555555555555556,2.01,0.41,10.49,11.718401088
1671151316.5654187,0,-178.374755859375,194.53955078125,552.129150390625,1,-75.081787109375,114.320068359375,180.145263671875,2,-21.7574462890625,115.50439453125,177.90283203125,3,103.963134765625,195.912109375,540.587890625,5.411069593893735,5.16002996108627,78.4,78.4,0.03,-0.03777777777777778,0.09555555555555556,2.01,0.41,10.49,11.718401088
1671151316.5754032,0,-177.8760986328125,194.552001953125,557.82421875,1,-75.1282958984375,114.166015625,186.06005859375,2,-21.9144287109375,115.71337890625,183.99853515625,3,104.2294921875,195.7578125,546.23486328125,5.411069593893735,5.16002996108627,78.4,78.4,0.03,-0.03777777777777778,0.09555555555555556,2.01,0.41,10.49,11.718401088
1671151316.5853891,0,-177.75518798828125,195.05615234375,563.06982421875,1,-75.20050048828125,114.314453125,191.0693359375,2,-21.8697509765625,115.562744140625,188.8916015625,3,104.3409423828125,195.9892578125,551.214111328125,5.411069593893735,5.16002996108627,78.4,78.4,0.03,-0.03777777777777778,0.09555555555555556,2.01,0.41,10.49,11.718401088
1671151316.595407,0,-177.2093505859375,194.7998046875,569.0869140625,1,-75.22760009765625,114.225830078125,196.6904296875,2,-21.9361572265625,115.461181640625,194.337158203125,3,104.960693359375,195.948486328125,556.82080078125,5.411069593893735,5.16002996108627,78.4,78.4,0.03,-0.03777777777777778,0.09555555555555556,2.01,0.41,10.49,11.718401088
1671151316.6053584,0,-176.78173828125,194.760009765625,574.8671875,1,-75.24176025390625,114.5703125,202.589111328125,2,-21.933349609375,115.650390625,200.1982421875,3,104.9764404296875,195.64306640625,562.57275390625,5.7257564549655315,5.5036866231163595,78.4,78.4,-0.021111111111111112,0.07,0.08,-1.34,2.19,11.65,11.72498816
1671151316.6153944,0,-176.54852294921875,194.76123046875,580.2646484375,1,-75.30584716796875,114.607177734375,207.716064453125,2,-21.83221435546875,115.5419921875,205.212890625,3,105.45947265625,195.79345703125,567.521728515625,5.7257564549655315,5.5036866231163595,78.4,78.4,-0.021111111111111112,0.07,0.08,-1.34,2.19,11.65,11.72498816
1671151316.6254117,0,-176.18682861328125,195.120849609375,586.159912109375,1,-75.13763427734375,114.51318359375,213.62109375,2,-21.83843994140625,115.64501953125,211.103271484375,3,105.5872802734375,195.589599609375,573.24951171875,5.7257564549655315,5.5036866231163595,78.4,78.4,-0.021111111111111112,0.07,0.08,-1.34,2.19,11.65,11.72498816
1671151316.635409,0,-175.62322998046875,194.948974609375,591.382080078125,1,-75.23919677734375,114.600341796875,218.751220703125,2,-21.80853271484375,115.66796875,216.155029296875,3,105.935791015625,195.7724609375,578.235107421875,6.040874985256905,5.731512044559895,78.4,78.4,0.005555555555555556,0.043333333333333335,0.09222222222222222,-1.51,1.33,12.51,11.695346336
1671151316.6453824,0,-175.6092529296875,194.8125,597.1103515625,1,-75.1734619140625,114.44384765625,224.36474609375,2,-21.898193359375,115.6123046875,221.85986328125,3,106.2379150390625,195.356201171875,584.02490234375,6.040874985256905,5.731512044559895,78.4,78.4,0.005555555555555556,0.043333333333333335,0.09222222222222222,-1.51,1.33,12.51,11.695346336
1671151316.655359,0,-175.5076904296875,194.935791015625,602.978515625,1,-75.16046142578125,114.355224609375,230.209716796875,2,-21.94891357421875,115.51318359375,227.5673828125,3,106.6409912109375,195.869873046875,589.174072265625,6.040874985256905,5.731512044559895,78.4,78.4,0.005555555555555556,0.043333333333333335,0.09222222222222222,-1.51,1.33,12.51,11.695346336
1671151316.665408,0,-175.11614990234375,194.57568359375,608.4169921875,1,-75.08453369140625,114.36279296875,235.23876953125,2,-21.86370849609375,115.45068359375,232.623291015625,3,107.1273193359375,195.752685546875,594.19775390625,6.040874985256905,5.731512044559895,78.4,78.4,0.005555555555555556,0.043333333333333335,0.09222222222222222,-1.51,1.33,12.51,11.695346336
1671151316.6753871,0,-174.284912109375,194.894287109375,614.07373046875,1,-74.999267578125,114.338134765625,241.119140625,2,-21.8037109375,115.5791015625,238.36376953125,3,107.42041015625,195.6123046875,599.9150390625,6.040874985256905,5.731512044559895,78.4,78.4,0.005555555555555556,0.043333333333333335,0.09222222222222222,-1.51,1.33,12.51,11.695346336
1671151316.6854117,0,-174.235107421875,195.2060546875,619.261962890625,1,-75.219482421875,114.340576171875,246.1826171875,2,-21.80560302734375,115.396240234375,243.382568359375,3,107.7098388671875,195.66064453125,604.99560546875,6.040874985256905,5.731512044559895,78.4,78.4,0.005555555555555556,0.043333333333333335,0.09222222222222222,-1.51,1.33,12.51,11.695346336
1671151316.695385,0,-174.05926513671875,195.262451171875,625.07861328125,1,-75.16156005859375,114.240478515625,252.026611328125,2,-21.75250244140625,115.328857421875,249.19189453125,3,108.0740966796875,195.5576171875,610.57470703125,6.040874985256905,5.731512044559895,78.4,78.4,0.005555555555555556,0.043333333333333335,0.09222222222222222,-1.51,1.33,12.51,11.695346336
1671151316.7053587,0,-173.45953369140625,195.035888671875,630.956787109375,1,-75.10491943359375,114.28076171875,257.7841796875,2,-21.7093505859375,115.221923828125,254.972900390625,3,108.62158203125,195.72509765625,616.14208984375,6.366401540064751,6.097615506008,78.4,78.4,-0.06,0.2788888888888889,0.08555555555555555,-1.35,1.94,10.74,11.721694624000001
1671151316.7153835,0,-173.258056640625,195.054931640625,636.201904296875,1,-75.03411865234375,114.0908203125,262.91357421875,2,-21.72979736328125,115.09326171875,260.0517578125,3,108.9375,195.738037109375,621.0869140625,6.366401540064751,6.097615506008,78.4,78.4,-0.06,0.2788888888888889,0.08555555555555555,-1.35,1.94,10.74,11.721694624000001
1671151316.7254093,0,-172.94390869140625,195.186279296875,642.033935546875,1,-74.962158203125,114.0634765625,268.6484375,2,-21.7318115234375,115.1171875,265.759033203125,3,109.127197265625,195.747802734375,626.570556640625,6.366401540064751,6.097615506008,78.4,78.4,-0.06,0.2788888888888889,0.08555555555555555,-1.35,1.94,10.74,11.721694624000001
1671151316.7354565,0,-172.66680908203125,195.049560546875,647.131591796875,1,-75.21844482421875,114.02490234375,273.76025390625,2,-21.86883544921875,115.065673828125,270.75048828125,3,109.472900390625,195.83544921875,631.43603515625,6.366401540064751,6.097615506008,78.4,78.4,-0.06,0.2788888888888889,0.08555555555555555,-1.35,1.94,10.74,11.721694624000001
1671151316.7454586,0,-172.263671875,195.14892578125,653.018798828125,1,-75.30560302734375,114.033447265625,279.47021484375,2,-21.917724609375,115.01171875,276.447509765625,3,109.685302734375,195.73291015625,637.03662109375,6.686508248004571,6.344338446619693,78.4,78.4,-0.06,-0.044444444444444446,0.09111111111111111,0.64,1.53,9.56,11.701933408
1671151316.7554436,0,-172.260986328125,195.509765625,658.321533203125,1,-75.14422607421875,113.957275390625,284.6181640625,2,-21.857666015625,114.843994140625,281.53759765625,3,110.0059814453125,195.530029296875,642.16943359375,6.686508248004571,6.344338446619693,78.4,78.4,-0.06,-0.044444444444444446,0.09111111111111111,0.64,1.53,9.56,11.701933408
1671151316.7654288,0,-171.7027587890625,194.760009765625,664.193359375,1,-75.01519775390625,113.9306640625,290.384765625,2,-21.66912841796875,114.942138671875,287.208740234375,3,110.19091796875,195.4521484375,647.7392578125,6.686508248004571,6.344338446619693,78.4,78.4,-0.06,-0.044444444444444446,0.09111111111111111,0.64,1.53,9.56,11.701933408
1671151316.7754312,0,-171.05926513671875,194.53369140625,670.043701171875,1,-75.06915283203125,113.82373046875,296.155029296875,2,-21.75823974609375,114.81591796875,292.99560546875,3,110.7127685546875,195.314208984375,653.3974609375,6.686508248004571,6.344338446619693,78.4,78.4,-0.06,-0.044444444444444446,0.09111111111111111,0.64,1.53,9.56,11.701933408
1671151316.785619,0,-170.99993896484375,194.786376953125,675.918212890625,1,-75.00244140625,113.8818359375,301.915283203125,2,-21.6312255859375,114.805908203125,298.665771484375,3,111.2489013671875,195.407470703125,658.828369140625,6.686508248004571,6.344338446619693,78.4,78.4,-0.06,-0.044444444444444446,0.09111111111111111,0.64,1.53,9.56,11.701933408
1671151316.7954617,0,-170.52716064453125,194.70849609375,681.14892578125,1,-75.00714111328125,113.890380859375,307.070068359375,2,-21.68634033203125,114.8759765625,303.783935546875,3,111.5428466796875,195.68115234375,663.75634765625,6.996015078441442,6.643437252540089,78.4,78.4,-0.08,-0.06222222222222222,0.08888888888888889,-0.67,2.3,14.58,11.72498816
1671151316.805454,0,-169.39825439453125,194.84423828125,686.755859375,1,-74.94024658203125,113.921142578125,312.7236328125,2,-21.57843017578125,114.842041015625,309.392578125,3,111.869140625,195.0859375,669.4921875,6.996015078441442,6.643437252540089,78.4,78.4,-0.08,-0.06222222222222222,0.08888888888888889,-0.67,2.3,14.58,11.72498816
1671151316.8154163,0,-168.8717041015625,195.374267578125,692.021728515625,1,-74.9024658203125,113.910888671875,317.93115234375,2,-21.56781005859375,114.80078125,314.54736328125,3,112.379150390625,195.46826171875,674.319091796875,6.996015078441442,6.643437252540089,78.4,78.4,-0.08,-0.06222222222222222,0.08888888888888889,-0.67,2.3,14.58,11.72498816
1671151316.8254254,0,-168.15673828125,195.181396484375,697.969482421875,1,-74.92230224609375,113.779541015625,323.7431640625,2,-21.62713623046875,114.673828125,320.265869140625,3,113.016845703125,195.741455078125,679.77099609375,6.996015078441442,6.643437252540089,78.4,78.4,-0.08,-0.06222222222222222,0.08888888888888889,-0.67,2.3,14.58,11.72498816
1671151316.835424,0,-168.173583984375,194.96875,703.38720703125,1,-74.72802734375,113.705810546875,329.013671875,2,-21.464599609375,114.740966796875,325.436279296875,3,113.5372314453125,195.824462890625,684.809814453125,6.996015078441442,6.643437252540089,78.4,78.4,-0.08,-0.06222222222222222,0.08888888888888889,-0.67,2.3,14.58,11.72498816
1671151316.845394,0,-167.7581787109375,194.9697265625,709.082763671875,1,-74.809814453125,113.676025390625,334.84228515625,2,-21.47119140625,114.58642578125,331.40234375,3,113.77001953125,195.556640625,690.703369140625,6.996015078441442,6.643437252540089,78.4,78.4,-0.08,-0.06222222222222222,0.08888888888888889,-0.67,2.3,14.58,11.72498816
1671151316.8554926,0,-167.53753662109375,194.714599609375,715.347900390625,1,-74.6737060546875,113.789306640625,340.640625,2,-21.287353515625,114.6728515625,337.099853515625,3,114.107421875,195.49560546875,696.458251953125,7.35842536989983,7.037071617547897,78.4,78.4,-0.006666666666666667,-0.08222222222222222,0.1,3.94,1.44,7.89,11.715107552000001
1671151316.86545,0,-166.83575439453125,194.9248046875,720.6533203125,1,-74.6744384765625,113.70556640625,345.96630859375,2,-21.31201171875,114.62744140625,342.343017578125,3,114.61865234375,195.6171875,701.2431640625,7.35842536989983,7.037071617547897,78.4,78.4,-0.006666666666666667,-0.08222222222222222,0.1,3.94,1.44,7.89,11.715107552000001
1671151316.8754656,0,-166.56341552734375,194.9814453125,726.40966796875,1,-74.71429443359375,113.8046875,351.656494140625,2,-21.31781005859375,114.610595703125,347.986083984375,3,115.072265625,195.544677734375,706.901611328125,7.35842536989983,7.037071617547897,78.4,78.4,-0.006666666666666667,-0.08222222222222222,0.1,3.94,1.44,7.89,11.715107552000001
1671151316.8854795,0,-166.00274658203125,194.903076171875,731.52001953125,1,-74.53009033203125,113.82177734375,356.802978515625,2,-21.22979736328125,114.65966796875,353.079833984375,3,115.385009765625,195.458984375,711.883056640625,7.631048463686157,7.234344450894688,78.4,78.4,0.01,-0.0077777777777777776,0.10222222222222223,-3.18,1.31,9.36,11.711814016
1671151316.8954513,0,-165.71881103515625,194.708740234375,737.490966796875,1,-74.5150146484375,113.8779296875,362.50537109375,2,-21.208984375,114.77099609375,358.778076171875,3,115.979248046875,195.6142578125,717.496826171875,7.631048463686157,7.234344450894688,78.4,78.4,0.01,-0.0077777777777777776,0.10222222222222223,-3.18,1.31,9.36,11.711814016
1671151316.9054394,0,-165.4647216796875,194.660888671875,742.990966796875,1,-74.48834228515625,114.012451171875,367.76171875,2,-21.1661376953125,114.892822265625,363.884521484375,3,116.0194091796875,195.746826171875,722.44091796875,7.631048463686157,7.234344450894688,78.4,78.4,0.01,-0.0077777777777777776,0.10222222222222223,-3.18,1.31,9.36,11.711814016
