Time,Marker0_ID,Marker0_x,Marker0_y,Marker0_z,Marker1_ID,Marker1_x,Marker1_y,Marker1_z,Marker2_ID,Marker2_x,Marker2_y,Marker2_z,Marker3_ID,Marker3_x,Marker3_y,Marker3_z,thetaR,thetaL,dutyR,dutyL,wx,wy,wz,ax,ay,az,Vbatt
1671151630.484391,0,0,0,0,0,0,0,0,0,0,0,0,0,0,0,0,0,0,0,0,0,0,0,0,0,0,0
1671151630.4944344,0,-144.72821044921875,194.7412109375,140.6630859375,1,-107.51068115234375,115.627685546875,-242.56591796875,2,-55.33538818359375,116.6083984375,-254.26513671875,3,131.274169921875,195.892333984375,79.383544921875,0,0,0,0,0,0,0,0,0,0,0
1671151630.5043895,0,-144.66168212890625,194.7958984375,140.622314453125,1,-107.40557861328125,115.646240234375,-242.563720703125,2,-55.34307861328125,116.61865234375,-254.2548828125,3,131.2984619140625,195.968017578125,79.392578125,0,0,0,0,0,0,0,0,0,0,0
1671151630.5143883,0,-144.60760498046875,194.858154296875,140.570068359375,1,-107.46893310546875,115.6162109375,-242.564453125,2,-55.41131591796875,116.66015625,-254.27099609375,3,131.2967529296875,195.93017578125,79.39453125,0,0,0,0,0,0,0,0,0,0,0
1671151630.5243752,0,-144.666015625,194.80419921875,140.623291015625,1,-107.47967529296875,115.653076171875,-242.59423828125,2,-55.33013916015625,116.5810546875,-254.2373046875,3,131.32275390625,195.93896484375,79.39599609375,0,0,0,0,0,0,0,0,0,0,0
1671151630.5344622,0,-144.62451171875,194.846923828125,140.61669921875,1,-107.43096923828125,115.6826171875,-242.602294921875,2,-55.36956787109375,116.6142578125,-254.2744140625,3,131.2547607421875,195.91552734375,79.347900390625,0,0,0,0,0,0,0,0,0,0,0
1671151630.5444016,0,-144.63189697265625,194.79931640625,140.641845703125,1,-107.45135498046875,115.669189453125,-242.59619140625,2,-55.37677001953125,116.620849609375,-254.267578125,3,131.29736328125,195.922607421875,79.39013671875,0,0,0,0,0,0,0,0,0,0,0
1671151630.5543866,0,-144.67218017578125,194.765625,140.66064453125,1,-107.45751953125,115.718505859375,-242.610595703125,2,-55.31280517578125,116.625244140625,-254.24267578125,3,131.281982421875,195.967041015625,79.379150390625,0,0,0,0,0,0,0,0,0,0,0
1671151630.5643823,0,-144.59222412109375,194.844482421875,140.57275390625,1,-107.4912109375,115.69091796875,-242.62353515625,2,-55.37457275390625,116.652587890625,-254.279296875,3,131.31201171875,195.9580078125,79.38623046875,0,0,0,0,0,0,0,0,0,0,0
1671151630.574362,0,-144.62884521484375,194.798828125,140.59716796875,1,-107.49639892578125,115.66943359375,-242.609130859375,2,-55.306884765625,116.57958984375,-254.231689453125,3,131.3331298828125,195.948974609375,79.396240234375,0,0,0,0,0,0,0,0,0,0,0
1671151630.584365,0,-144.622802734375,194.805419921875,140.665771484375,1,-107.4154052734375,115.69873046875,-242.618896484375,2,-55.39385986328125,116.64306640625,-254.2685546875,3,131.3104248046875,195.93115234375,79.355712890625,0.0,0.0,0.0,0.0,0.0,-0.0,-0.0,-0.17,1.84,9.62,11.701933408
1671151630.5943751,0,-144.58984375,194.809326171875,140.62060546875,1,-107.5030517578125,115.6904296875,-242.61767578125,2,-55.3736572265625,116.67578125,-254.28955078125,3,131.3057861328125,195.9296875,79.371337890625,0.0,0.0,0.0,0.0,0.0,-0.0,-0.0,-0.17,1.84,9.62,11.701933408
1671151630.6043668,0,-144.61273193359375,194.80859375,140.636474609375,1,-107.44830322265625,115.685791015625,-242.595947265625,2,-55.32904052734375,116.596435546875,-254.23193359375,3,131.3125,195.9580078125,79.4013671875,0.0,0.0,0.0,0.0,0.2822222222222222,-0.0033333333333333335,-0.0011111111111111111,-0.18,1.85,9.7,11.701933408
1671151630.6143923,0,-144.553955078125,194.849609375,140.567138671875,1,-107.54974365234375,115.650146484375,-242.572509765625,2,-55.36431884765625,116.63232421875,-254.25048828125,3,131.2681884765625,195.97119140625,79.4140625,0.0,0.0,0.0,0.0,0.2822222222222222,-0.0033333333333333335,-0.0011111111111111111,-0.18,1.85,9.7,11.701933408
1671151630.624395,0,-144.59088134765625,194.891357421875,140.56494140625,1,-107.501953125,115.69091796875,-242.6484375,2,-55.32574462890625,116.622802734375,-254.255126953125,3,131.2508544921875,195.95849609375,79.390869140625,0.0,0.0,0.0,0.0,0.2822222222222222,-0.0033333333333333335,-0.0011111111111111111,-0.18,1.85,9.7,11.701933408
1671151630.634488,0,-144.8006591796875,194.674072265625,140.702880859375,1,-107.44354248046875,115.6484375,-242.570556640625,2,-55.35687255859375,116.649658203125,-254.28125,3,131.2685546875,195.888671875,79.400390625,0.0,0.0,0.0,0.0,0.2822222222222222,-0.0033333333333333335,-0.0011111111111111111,-0.18,1.85,9.7,11.701933408
1671151630.6443634,0,-144.613037109375,194.825927734375,140.64013671875,1,-107.45343017578125,115.6083984375,-242.564208984375,2,-55.38848876953125,116.645751953125,-254.275146484375,3,131.22998046875,195.921142578125,79.389892578125,0.0,0.0,0.0,0.0,0.2822222222222222,-0.0033333333333333335,-0.0011111111111111111,-0.18,1.85,9.7,11.701933408
1671151630.654376,0,-144.70660400390625,194.7666015625,140.6806640625,1,-107.43963623046875,115.6376953125,-242.56689453125,2,-55.35955810546875,116.60888671875,-254.24951171875,3,131.2493896484375,195.916015625,79.42919921875,0.0,0.0,0.0,0.0,0.2822222222222222,-0.0033333333333333335,-0.0011111111111111111,-0.18,1.85,9.7,11.701933408
1671151630.6643405,0,-144.66845703125,194.8251953125,140.595458984375,1,-107.50970458984375,115.62109375,-242.585205078125,2,-55.3895263671875,116.634765625,-254.266357421875,3,131.2857666015625,195.8974609375,79.451416015625,0.0,0.0,0.0,0.0,0.0011111111111111111,-0.0011111111111111111,0.0011111111111111111,-0.17,1.83,9.66,11.682172192000001
1671151630.6743495,0,-144.6380615234375,194.81884765625,140.59814453125,1,-107.509033203125,115.594970703125,-242.582763671875,2,-55.36749267578125,116.593994140625,-254.24658203125,3,131.2330322265625,195.912353515625,79.447998046875,0.0,0.0,0.0,0.0,0.0011111111111111111,-0.0011111111111111111,0.0011111111111111111,-0.17,1.83,9.66,11.682172192000001
1671151630.6843705,0,-144.65521240234375,194.780029296875,140.69970703125,1,-107.4085693359375,115.58837890625,-242.548583984375,2,-55.41168212890625,116.659912109375,-254.25341796875,3,131.2259521484375,195.860107421875,79.411376953125,0.0,0.0,0.0,0.0,0.0011111111111111111,-0.0011111111111111111,0.0011111111111111111,-0.17,1.83,9.66,11.682172192000001
1671151630.6943545,0,-144.65142822265625,194.810302734375,140.63037109375,1,-107.49615478515625,115.63134765625,-242.576416015625,2,-55.3785400390625,116.646484375,-254.27392578125,3,131.240966796875,195.891845703125,79.3955078125,0.0,0.0,0.0,0.0,0.0011111111111111111,-0.0011111111111111111,0.0011111111111111111,-0.17,1.83,9.66,11.682172192000001
1671151630.7043476,0,-144.63427734375,194.81591796875,140.620361328125,1,-107.35626220703125,115.60546875,-242.577880859375,2,-55.31549072265625,116.62109375,-254.276611328125,3,131.2615966796875,195.936279296875,79.382568359375,0.0,0.0,0.0,0.0,-0.2833333333333333,0.0022222222222222222,0.0011111111111111111,-0.16,1.85,9.71,11.698639872000001
1671151630.7143767,0,-144.62823486328125,194.774658203125,140.615966796875,1,-107.48394775390625,115.659423828125,-242.585205078125,2,-55.34197998046875,116.62744140625,-254.235595703125,3,131.3009033203125,195.899658203125,79.383056640625,0.0,0.0,0.0,0.0,-0.2833333333333333,0.0022222222222222222,0.0011111111111111111,-0.16,1.85,9.71,11.698639872000001
1671151630.7243195,0,-144.619873046875,194.82666015625,140.610595703125,1,-107.51080322265625,115.671142578125,-242.61181640625,2,-55.28082275390625,116.582275390625,-254.22607421875,3,131.2452392578125,195.95751953125,79.422607421875,0.0,0.0,0.0,0.0,-0.2833333333333333,0.0022222222222222222,0.0011111111111111111,-0.16,1.85,9.71,11.698639872000001
1671151630.7344062,0,-144.69671630859375,194.75439453125,140.67236328125,1,-107.4244384765625,115.710205078125,-242.586669921875,2,-55.38189697265625,116.64501953125,-254.267333984375,3,131.2791748046875,195.894775390625,79.373779296875,0.0,0.0,0.0,0.0,-0.2833333333333333,0.0022222222222222222,0.0011111111111111111,-0.16,1.85,9.71,11.698639872000001
1671151630.7443197,0,-144.74365234375,194.70849609375,140.708740234375,1,-107.5169677734375,115.698486328125,-242.584228515625,2,-55.40301513671875,116.640380859375,-254.236328125,3,131.2633056640625,195.92919921875,79.352294921875,0.0,0.0,0.0,0.0,-0.2833333333333333,0.0022222222222222222,0.0011111111111111111,-0.16,1.85,9.71,11.698639872000001
1671151630.7543898,0,-144.64691162109375,194.733642578125,140.6904296875,1,-107.468505859375,115.697021484375,-242.614501953125,2,-55.38970947265625,116.61962890625,-254.26513671875,3,131.1771240234375,196.00634765625,79.353271484375,0.0,0.0,0.0,0.0,-0.2833333333333333,0.0022222222222222222,0.0011111111111111111,-0.16,1.85,9.71,11.698639872000001
1671151630.76441,0,-144.75836181640625,194.703369140625,140.615234375,1,-107.55731201171875,115.651123046875,-242.581298828125,2,-55.4091796875,116.640625,-254.279052734375,3,131.27001953125,195.928955078125,79.401611328125,0.0,0.0,0.0,0.0,-0.0011111111111111111,0.0033333333333333335,-0.0,-0.18,1.83,9.69,11.688759264
1671151630.7743857,0,-144.6702880859375,194.841796875,140.6083984375,1,-107.52093505859375,115.6904296875,-242.59326171875,2,-55.30010986328125,116.6005859375,-254.26806640625,3,131.233642578125,195.95458984375,79.412353515625,0.0,0.0,0.0,0.0,-0.0011111111111111111,0.0033333333333333335,-0.0,-0.18,1.83,9.69,11.688759264
1671151630.78447,0,-144.61669921875,194.826171875,140.647705078125,1,-107.4373779296875,115.673828125,-242.591796875,2,-55.36004638671875,116.6171875,-254.279541015625,3,131.2545166015625,195.917724609375,79.38916015625,0.0,0.0,0.0,0.0,-0.0011111111111111111,0.0033333333333333335,-0.0,-0.18,1.83,9.69,11.688759264
1671151630.794392,0,-144.64373779296875,194.781005859375,140.6708984375,1,-107.518798828125,115.64306640625,-242.581298828125,2,-55.39117431640625,116.6416015625,-254.259765625,3,131.2681884765625,195.896728515625,79.388671875,0.0,0.0,0.0,0.0,-0.0011111111111111111,0.0033333333333333335,-0.0,-0.18,1.83,9.69,11.688759264
1671151630.804369,0,-144.61920166015625,194.832275390625,140.642822265625,1,-107.46209716796875,115.672607421875,-242.572509765625,2,-55.32122802734375,116.622802734375,-254.2373046875,3,131.319580078125,195.963134765625,79.378662109375,0.0,0.0,0.0,0.0,-0.0011111111111111111,0.0033333333333333335,-0.0,-0.18,1.83,9.69,11.688759264
1671151630.8143852,0,-144.60296630859375,194.76904296875,140.62109375,1,-107.49127197265625,115.625732421875,-242.57470703125,2,-55.35858154296875,116.628173828125,-254.2470703125,3,131.3001708984375,195.9248046875,79.42919921875,0.0,0.0,0.0,0.0,0.0011111111111111111,-0.0011111111111111111,0.0011111111111111111,-0.17,1.81,9.69,11.695346336
1671151630.824379,0,-144.61669921875,194.7626953125,140.663330078125,1,-107.48876953125,115.649658203125,-242.59228515625,2,-55.36468505859375,116.6259765625,-254.2392578125,3,131.28466796875,195.93115234375,79.423095703125,0.0,0.0,0.0,0.0,0.0011111111111111111,-0.0011111111111111111,0.0011111111111111111,-0.17,1.81,9.69,11.695346336
1671151630.8345137,0,-144.6815185546875,194.76318359375,140.673583984375,1,-107.4176025390625,115.66943359375,-242.567138671875,2,-55.38897705078125,116.6201171875,-254.26171875,3,131.2637939453125,195.9189453125,79.381103515625,0.0,0.0,0.0,0.0,0.0011111111111111111,-0.0011111111111111111,0.0011111111111111111,-0.17,1.81,9.69,11.695346336
1671151630.8443272,0,-144.73919677734375,194.671875,140.719970703125,1,-107.5093994140625,115.623779296875,-242.590087890625,2,-55.35015869140625,116.623779296875,-254.255615234375,3,131.266845703125,195.91650390625,79.372802734375,0.0,0.0,0.0,0.0,0.0011111111111111111,-0.0011111111111111111,0.0011111111111111111,-0.17,1.81,9.69,11.695346336
1671151630.854372,0,-144.61767578125,194.844482421875,140.625732421875,1,-107.45611572265625,115.65966796875,-242.606689453125,2,-55.28643798828125,116.5791015625,-254.226806640625,3,131.3070068359375,195.972412109375,79.410400390625,0.0,0.0,0.0,0.0,0.0011111111111111111,-0.0011111111111111111,0.0011111111111111111,-0.17,1.81,9.69,11.695346336
1671151630.8643541,0,-144.71832275390625,194.749755859375,140.65625,1,-107.47088623046875,115.654052734375,-242.607421875,2,-55.36151123046875,116.628173828125,-254.275390625,3,131.3056640625,196.005859375,79.370849609375,0.0,0.0,0.0,0.0,0.0011111111111111111,-0.0011111111111111111,0.0011111111111111111,-0.17,1.81,9.69,11.695346336
1671151630.8743558,0,-144.59661865234375,194.78955078125,140.632568359375,1,-107.5057373046875,115.695068359375,-242.5927734375,2,-55.32666015625,116.631103515625,-254.2333984375,3,131.306640625,195.961181640625,79.38134765625,0.0,0.0,0.0,0.0,0.0011111111111111111,0.0011111111111111111,-0.2822222222222222,-0.16,1.84,9.66,11.711814016
1671151630.8844194,0,-144.6141357421875,194.841064453125,140.63623046875,1,-107.42022705078125,115.679443359375,-242.60498046875,2,-55.35260009765625,116.598388671875,-254.24658203125,3,131.2943115234375,195.936279296875,79.358154296875,0.0,0.0,0.0,0.0,0.0011111111111111111,0.0011111111111111111,-0.2822222222222222,-0.16,1.84,9.66,11.711814016
1671151630.8943489,0,-144.73736572265625,194.699462890625,140.71875,1,-107.46435546875,115.6455078125,-242.609375,2,-55.34210205078125,116.608154296875,-254.251953125,3,131.3052978515625,195.93017578125,79.3701171875,0.0,0.0,0.0,0.0,0.0011111111111111111,0.0011111111111111111,-0.2822222222222222,-0.16,1.84,9.66,11.711814016
1671151630.9043593,0,-144.65191650390625,194.744140625,140.681884765625,1,-107.40289306640625,115.680419921875,-242.5947265625,2,-55.34307861328125,116.588134765625,-254.238037109375,3,131.23828125,196.001708984375,79.39501953125,0.0,0.0,0.0,0.0,0.2833333333333333,-0.0,-0.0,-0.18,1.83,9.71,11.678878656
1671151630.9143686,0,-144.71685791015625,194.728271484375,140.598876953125,1,-107.4910888671875,115.6806640625,-242.6171875,2,-55.33453369140625,116.588623046875,-254.246337890625,3,131.297607421875,195.99951171875,79.41015625,0.0,0.0,0.0,0.0,0.2833333333333333,-0.0,-0.0,-0.18,1.83,9.71,11.678878656
1671151630.9243722,0,-144.6082763671875,194.8583984375,140.58349609375,1,-107.45916748046875,115.674560546875,-242.605712890625,2,-55.26470947265625,116.60888671875,-254.23291015625,3,131.34375,196.012939453125,79.360595703125,0.0,0.0,0.0,0.0,0.2833333333333333,-0.0,-0.0,-0.18,1.83,9.71,11.678878656
1671151630.934463,0,-144.5870361328125,194.828857421875,140.631103515625,1,-107.3922119140625,115.692138671875,-242.59912109375,2,-55.387939453125,116.659423828125,-254.27001953125,3,131.281982421875,195.978515625,79.3408203125,0.0,0.0,0.0,0.0,0.2833333333333333,-0.0,-0.0,-0.18,1.83,9.71,11.678878656
1671151630.9443655,0,-144.6907958984375,194.723876953125,140.65673828125,1,-107.48095703125,115.7548828125,-242.650390625,2,-55.36944580078125,116.6484375,-254.24267578125,3,131.3006591796875,196.023193359375,79.346923828125,0.0,0.0,0.0,0.0,0.2833333333333333,-0.0,-0.0,-0.18,1.83,9.71,11.678878656
1671151630.9543903,0,-144.645751953125,194.824951171875,140.660400390625,1,-107.416259765625,115.74560546875,-242.620361328125,2,-55.30859375,116.5693359375,-254.254638671875,3,131.3155517578125,196.0322265625,79.403076171875,0.0,0.0,0.0,0.0,0.2833333333333333,-0.0,-0.0,-0.18,1.83,9.71,11.678878656
1671151630.964488,0,-144.6251220703125,194.866455078125,140.5830078125,1,-107.4840087890625,115.73046875,-242.652587890625,2,-55.36724853515625,116.622314453125,-254.2509765625,3,131.3135986328125,196.009521484375,79.35302734375,0.0,0.0,0.0,0.0,0.0022222222222222222,-0.0022222222222222222,0.0011111111111111111,-0.17,1.83,9.7,11.705226944
1671151630.9743977,0,-144.61572265625,194.83837890625,140.587890625,1,-107.52490234375,115.744873046875,-242.63037109375,2,-55.35345458984375,116.630615234375,-254.254638671875,3,131.263427734375,196.064453125,79.375732421875,0.0,0.0,0.0,0.0,0.0022222222222222222,-0.0022222222222222222,0.0011111111111111111,-0.17,1.83,9.7,11.705226944
1671151630.9843307,0,-144.65863037109375,194.77392578125,140.646728515625,1,-107.37152099609375,115.731689453125,-242.623046875,2,-55.36773681640625,116.62548828125,-254.27880859375,3,131.3265380859375,195.9541015625,79.34619140625,0.0,0.0,0.0,0.0,0.0022222222222222222,-0.0022222222222222222,0.0011111111111111111,-0.17,1.83,9.7,11.705226944
1671151630.9943821,0,-144.600830078125,194.83203125,140.627197265625,1,-107.45416259765625,115.67041015625,-242.64111328125,2,-55.37860107421875,116.628173828125,-254.269775390625,3,131.3023681640625,195.968505859375,79.32275390625,0.0,0.0,0.0,0.0,0.0022222222222222222,-0.0022222222222222222,0.0011111111111111111,-0.17,1.83,9.7,11.705226944
1671151631.0043614,0,-144.5972900390625,194.827880859375,140.6328125,1,-107.3876953125,115.734130859375,-242.630859375,2,-55.3212890625,116.597412109375,-254.25244140625,3,131.309814453125,196.040283203125,79.345947265625,0.0,0.0,0.0,0.0,0.0022222222222222222,-0.0022222222222222222,0.0011111111111111111,-0.17,1.83,9.7,11.705226944
1671151631.0144928,0,-144.6033935546875,194.780517578125,140.61474609375,1,-107.46514892578125,115.68408203125,-242.641357421875,2,-55.39093017578125,116.62744140625,-254.2578125,3,131.2298583984375,196.0361328125,79.36328125,0.0,0.0,0.0,0.0,-0.0011111111111111111,-0.0,-0.0011111111111111111,-0.17,1.82,9.66,11.718401088
1671151631.0243747,0,-144.61199951171875,194.820556640625,140.602783203125,1,-107.46490478515625,115.6787109375,-242.61474609375,2,-55.36163330078125,116.62939453125,-254.24072265625,3,131.3052978515625,195.987548828125,79.423828125,0.0,0.0,0.0,0.0,-0.0011111111111111111,-0.0,-0.0011111111111111111,-0.17,1.82,9.66,11.718401088
1671151631.0344572,0,-144.6029052734375,194.841796875,140.6318359375,1,-107.3453369140625,115.697509765625,-242.623291015625,2,-55.39007568359375,116.636962890625,-254.255615234375,3,131.3004150390625,195.991943359375,79.322509765625,0.0,0.0,0.0,0.0,-0.0011111111111111111,-0.0,-0.0011111111111111111,-0.17,1.82,9.66,11.718401088
1671151631.04438,0,-144.65435791015625,194.73193359375,140.687744140625,1,-107.43499755859375,115.680419921875,-242.59912109375,2,-55.34222412109375,116.613525390625,-254.259521484375,3,131.2774658203125,195.963134765625,79.36767578125,0.0,0.0,0.0,0.0,-0.0011111111111111111,-0.0,-0.0011111111111111111,-0.17,1.82,9.66,11.718401088
1671151631.0544014,0,-144.754638671875,194.71630859375,140.660400390625,1,-107.4019775390625,115.697021484375,-242.5927734375,2,-55.32952880859375,116.6201171875,-254.230224609375,3,131.269287109375,196.031494140625,79.372802734375,0.0,0.0,0.0,0.0,-0.0011111111111111111,-0.0,-0.0011111111111111111,-0.17,1.82,9.66,11.718401088
1671151631.0644915,0,-144.6458740234375,194.8232421875,140.577880859375,1,-107.50628662109375,115.703857421875,-242.61328125,2,-55.33734130859375,116.621826171875,-254.238525390625,3,131.2733154296875,196.001220703125,79.336669921875,0.0,0.0,0.0,0.0,-0.0022222222222222222,-0.0,0.0022222222222222222,-0.17,1.82,9.71,11.695346336
1671151631.0743957,0,-144.621337890625,194.8408203125,140.583984375,1,-107.54510498046875,115.733642578125,-242.61376953125,2,-55.32568359375,116.62109375,-254.265380859375,3,131.2509765625,196.03369140625,79.355712890625,0.0,0.0,0.0,0.0,-0.0022222222222222222,-0.0,0.0022222222222222222,-0.17,1.82,9.71,11.695346336
1671151631.0844364,0,-144.69793701171875,194.677978515625,140.70703125,1,-107.42315673828125,115.77001953125,-242.633544921875,2,-55.39117431640625,116.633544921875,-254.266357421875,3,131.3189697265625,195.986328125,79.317626953125,0.0,0.0,0.0,0.0,-0.0022222222222222222,-0.0,0.0022222222222222222,-0.17,1.82,9.71,11.695346336
1671151631.09442,0,-144.6812744140625,194.793701171875,140.6640625,1,-107.45703125,115.71240234375,-242.66162109375,2,-55.36376953125,116.633056640625,-254.260009765625,3,131.3160400390625,195.9921875,79.3291015625,0.0,0.0,0.0,0.0,-0.0022222222222222222,-0.0,0.0022222222222222222,-0.17,1.82,9.71,11.695346336
1671151631.104387,0,-144.6512451171875,194.82177734375,140.6435546875,1,-107.39813232421875,115.75830078125,-242.66455078125,2,-55.35589599609375,116.64013671875,-254.2255859375,3,131.358642578125,196.02197265625,79.33642578125,0.0,0.0,0.0,0.0,-0.0022222222222222222,-0.0,0.0022222222222222222,-0.17,1.82,9.71,11.695346336
1671151631.1145332,0,-144.6177978515625,194.808837890625,140.595947265625,1,-107.4461669921875,115.737060546875,-242.6689453125,2,-55.39459228515625,116.6259765625,-254.25390625,3,131.342041015625,196.057861328125,79.362548828125,0.0,0.0,0.0,0.0,-0.0022222222222222222,0.0011111111111111111,0.28444444444444444,-0.17,1.83,9.67,11.705226944
1671151631.124656,0,-144.6417236328125,194.8193359375,140.5986328125,1,-107.4478759765625,115.748291015625,-242.660888671875,2,-55.3792724609375,116.64453125,-254.254150390625,3,131.34619140625,196.059814453125,79.37060546875,0.0,0.0,0.0,0.0,-0.0022222222222222222,0.0011111111111111111,0.28444444444444444,-0.17,1.83,9.67,11.705226944
1671151631.1344423,0,-144.68756103515625,194.733642578125,140.697998046875,1,-107.37432861328125,115.78125,-242.670654296875,2,-55.37200927734375,116.645263671875,-254.260986328125,3,131.3070068359375,196.04052734375,79.310302734375,0.0,0.0,0.0,0.0,-0.0022222222222222222,0.0011111111111111111,0.28444444444444444,-0.17,1.83,9.67,11.705226944
1671151631.1444554,0,-144.52801513671875,194.89306640625,140.60546875,1,-107.461181640625,115.760009765625,-242.67236328125,2,-55.37066650390625,116.62353515625,-254.26708984375,3,131.337890625,196.024169921875,79.30908203125,0.0,0.0,0.0,0.0,-0.0022222222222222222,0.0011111111111111111,0.28444444444444444,-0.17,1.83,9.67,11.705226944
1671151631.154444,0,-144.701171875,194.715576171875,140.695068359375,1,-107.3896484375,115.789306640625,-242.696044921875,2,-55.29022216796875,116.6025390625,-254.24853515625,3,131.31201171875,196.094482421875,79.30078125,0.0,0.0,0.0,0.0,-0.0022222222222222222,0.0011111111111111111,0.28444444444444444,-0.17,1.83,9.67,11.705226944
1671151631.1644511,0,-144.64697265625,194.825439453125,140.615478515625,1,-107.45672607421875,115.743896484375,-242.677734375,2,-55.33355712890625,116.638671875,-254.27001953125,3,131.3251953125,196.05517578125,79.32568359375,0.0,0.0,0.0,0.0,-0.0022222222222222222,0.0011111111111111111,0.28444444444444444,-0.17,1.83,9.67,11.705226944
1671151631.1744802,0,-144.6580810546875,194.838623046875,140.599609375,1,-107.4486083984375,115.7216796875,-242.652587890625,2,-55.30548095703125,116.62255859375,-254.243408203125,3,131.3397216796875,196.0205078125,79.351318359375,0.0,0.0,0.0,0.0,0.0,-0.0,0.0022222222222222222,-0.18,1.83,9.66,11.695346336
1671151631.18445,0,-144.6522216796875,194.814697265625,140.66455078125,1,-107.4083251953125,115.744384765625,-242.658935546875,2,-55.38397216796875,116.647705078125,-254.251708984375,3,131.309326171875,195.990234375,79.33642578125,0.0,0.0,0.0,0.0,0.0,-0.0,0.0022222222222222222,-0.18,1.83,9.66,11.695346336
1671151631.1944802,0,-144.649169921875,194.83984375,140.640869140625,1,-107.49493408203125,115.75390625,-242.62939453125,2,-55.37701416015625,116.632568359375,-254.23876953125,3,131.2972412109375,195.963623046875,79.35400390625,0.0,0.0,0.0,0.0,0.0,-0.0,0.0022222222222222222,-0.18,1.83,9.66,11.695346336
1671151631.204403,0,-144.6983642578125,194.79638671875,140.66357421875,1,-107.3558349609375,115.701904296875,-242.623291015625,2,-55.3304443359375,116.552001953125,-254.2265625,3,131.316650390625,196.016845703125,79.356689453125,0.0,0.0,0.0,0.0,-0.0033333333333333335,0.28444444444444444,-0.0022222222222222222,-0.16,1.82,9.7,11.688759264
1671151631.2144084,0,-144.64111328125,194.805908203125,140.6220703125,1,-107.46441650390625,115.676513671875,-242.600830078125,2,-55.35833740234375,116.635986328125,-254.271728515625,3,131.290283203125,195.986083984375,79.37890625,0.0,0.0,0.0,0.0,-0.0033333333333333335,0.28444444444444444,-0.0022222222222222222,-0.16,1.82,9.7,11.688759264
1671151631.22436,0,-144.65765380859375,194.794921875,140.623291015625,1,-107.4818115234375,115.6708984375,-242.618896484375,2,-55.35577392578125,116.642333984375,-254.2392578125,3,131.2918701171875,195.987548828125,79.3759765625,0.0,0.0,0.0,0.0,-0.0033333333333333335,0.28444444444444444,-0.0022222222222222222,-0.16,1.82,9.7,11.688759264
1671151631.2343915,0,-144.6854248046875,194.830078125,140.647705078125,1,-107.35321044921875,115.660400390625,-242.621337890625,2,-55.34088134765625,116.63037109375,-254.270751953125,3,131.2667236328125,195.9658203125,79.35546875,0.0,0.0,0.0,0.0,-0.0033333333333333335,0.28444444444444444,-0.0022222222222222222,-0.16,1.82,9.7,11.688759264
1671151631.244392,0,-144.63262939453125,194.814208984375,140.62890625,1,-107.5242919921875,115.721435546875,-242.60986328125,2,-55.31292724609375,116.581298828125,-254.25341796875,3,131.2799072265625,195.96728515625,79.34033203125,0.0,0.0,0.0,0.0,-0.0033333333333333335,0.28444444444444444,-0.0022222222222222222,-0.16,1.82,9.7,11.688759264
1671151631.2544096,0,-144.6392822265625,194.820068359375,140.634765625,1,-107.42218017578125,115.65869140625,-242.559814453125,2,-55.35479736328125,116.600830078125,-254.230712890625,3,131.267578125,196.016845703125,79.35595703125,0.0,0.0,0.0,0.0,-0.0033333333333333335,0.28444444444444444,-0.0022222222222222222,-0.16,1.82,9.7,11.688759264
1671151631.264368,0,-144.65142822265625,194.801513671875,140.612060546875,1,-107.458984375,115.703369140625,-242.61962890625,2,-55.35137939453125,116.623779296875,-254.24951171875,3,131.2994384765625,195.95947265625,79.42041015625,0.0,0.0,0.0,0.0,0.0,0.0011111111111111111,-0.0011111111111111111,-0.15,1.83,9.7,11.705226944
1671151631.2743518,0,-144.694580078125,194.814208984375,140.593994140625,1,-107.517822265625,115.745849609375,-242.62060546875,2,-55.28607177734375,116.5751953125,-254.2470703125,3,131.3193359375,195.994873046875,79.415771484375,0.0,0.0,0.0,0.0,0.0,0.0011111111111111111,-0.0011111111111111111,-0.15,1.83,9.7,11.705226944
1671151631.2843397,0,-144.6336669921875,194.880615234375,140.626220703125,1,-107.3966064453125,115.733154296875,-242.625732421875,2,-55.35369873046875,116.6171875,-254.26318359375,3,131.2945556640625,195.976318359375,79.322509765625,0.0,0.0,0.0,0.0,0.0,0.0011111111111111111,-0.0011111111111111111,-0.15,1.83,9.7,11.705226944
1671151631.2944095,0,-144.5692138671875,194.848388671875,140.652587890625,1,-107.4984130859375,115.71484375,-242.64208984375,2,-55.37457275390625,116.62841796875,-254.264404296875,3,131.2642822265625,195.9638671875,79.374755859375,0.0,0.0,0.0,0.0,0.0,0.0011111111111111111,-0.0011111111111111111,-0.15,1.83,9.7,11.705226944
1671151631.304393,0,-144.67926025390625,194.781982421875,140.66796875,1,-107.4371337890625,115.7666015625,-242.6044921875,2,-55.28326416015625,116.600830078125,-254.254638671875,3,131.2864990234375,196.050537109375,79.337158203125,0.0,0.0,0.0,0.0,0.0,0.0011111111111111111,-0.0011111111111111111,-0.15,1.83,9.7,11.705226944
1671151631.3144176,0,-144.5736083984375,194.8291015625,140.572265625,1,-107.5185546875,115.704833984375,-242.613525390625,2,-55.36749267578125,116.614013671875,-254.265380859375,3,131.289794921875,195.997314453125,79.37646484375,0.0,0.0,0.0,0.0,0.0,0.0011111111111111111,-0.0011111111111111111,-0.15,1.83,9.7,11.705226944
1671151631.3243816,0,-144.604248046875,194.840087890625,140.5908203125,1,-107.47406005859375,115.676513671875,-242.618408203125,2,-55.36431884765625,116.60302734375,-254.207763671875,3,131.2974853515625,195.990966796875,79.373291015625,0.0,0.0,0.0,0.0,0.0,0.0011111111111111111,-0.0011111111111111111,-0.15,1.83,9.7,11.705226944
1671151631.3343935,0,-144.62518310546875,194.81103515625,140.608642578125,1,-107.4090576171875,115.724609375,-242.631103515625,2,-55.37957763671875,116.661865234375,-254.248779296875,3,131.2940673828125,195.9775390625,79.330078125,0.0,0.0,0.0,0.0,0.0,0.0011111111111111111,-0.0011111111111111111,-0.15,1.83,9.7,11.705226944
1671151631.3443694,0,-144.71148681640625,194.729736328125,140.693603515625,1,-107.45648193359375,115.654541015625,-242.6103515625,2,-55.38983154296875,116.618408203125,-254.2451171875,3,131.294921875,195.946533203125,79.34716796875,0.0,0.0,0.0,0.0,0.0,0.0011111111111111111,-0.0011111111111111111,-0.15,1.83,9.7,11.705226944
1671151631.354438,0,-144.65985107421875,194.791259765625,140.6396484375,1,-107.37579345703125,115.678955078125,-242.6181640625,2,-55.36590576171875,116.630126953125,-254.2470703125,3,131.3485107421875,195.985595703125,79.370361328125,0.0,0.0,0.0,0.0,-0.0011111111111111111,-0.0,0.0022222222222222222,-0.17,1.8,9.69,11.6920528
1671151631.3643725,0,-144.61846923828125,194.798095703125,140.584716796875,1,-107.51373291015625,115.7314453125,-242.613525390625,2,-55.31903076171875,116.598876953125,-254.2490234375,3,131.33544921875,196.031494140625,79.356689453125,0.0,0.0,0.0,0.0,-0.0011111111111111111,-0.0011111111111111111,-0.0033333333333333335,-0.18,1.84,9.69,11.688759264
1671151631.3743875,0,-144.62249755859375,194.80029296875,140.6103515625,1,-107.507568359375,115.69775390625,-242.63427734375,2,-55.264404296875,116.5380859375,-254.24951171875,3,131.309326171875,195.98974609375,79.38525390625,0.0,0.0,0.0,0.0,-0.0011111111111111111,-0.0011111111111111111,-0.0033333333333333335,-0.18,1.84,9.69,11.688759264
1671151631.3843656,0,-144.75311279296875,194.694580078125,140.678466796875,1,-107.4061279296875,115.72314453125,-242.655029296875,2,-55.41546630859375,116.6201171875,-254.25830078125,3,131.2572021484375,195.93603515625,79.3388671875,0.0,0.0,0.0,0.0,-0.0011111111111111111,-0.0011111111111111111,-0.0033333333333333335,-0.18,1.84,9.69,11.688759264
1671151631.394411,0,-144.6058349609375,194.848876953125,140.6142578125,1,-107.4835205078125,115.73291015625,-242.666748046875,2,-55.38409423828125,116.650146484375,-254.25244140625,3,131.295166015625,195.979248046875,79.34716796875,0.0,0.0,0.0,0.0,-0.0011111111111111111,-0.0011111111111111111,-0.0033333333333333335,-0.18,1.84,9.69,11.688759264
1671151631.4046264,0,-144.6207275390625,194.81591796875,140.62890625,1,-107.37982177734375,115.724365234375,-242.647216796875,2,-55.30535888671875,116.583251953125,-254.216796875,3,131.316162109375,196.013916015625,79.346435546875,0.0,0.0,0.0,0.0,-0.0011111111111111111,-0.0011111111111111111,-0.0033333333333333335,-0.18,1.84,9.69,11.688759264
1671151631.4144533,0,-144.61737060546875,194.818115234375,140.623046875,1,-107.438232421875,115.70068359375,-242.653076171875,2,-55.37103271484375,116.602294921875,-254.244140625,3,131.333984375,196.01708984375,79.3681640625,0.0,0.0,0.0,0.0,0.0011111111111111111,0.0011111111111111111,-0.0,-0.19,1.83,9.7,11.698639872000001
1671151631.424434,0,-144.576904296875,194.81298828125,140.58251953125,1,-107.49169921875,115.7216796875,-242.65283203125,2,-55.32574462890625,116.6220703125,-254.226806640625,3,131.344482421875,195.992919921875,79.353515625,0.0,0.0,0.0,0.0,0.0011111111111111111,0.0011111111111111111,-0.0,-0.19,1.83,9.7,11.698639872000001
1671151631.434443,0,-144.677490234375,194.772705078125,140.668212890625,1,-107.412841796875,115.720947265625,-242.61962890625,2,-55.4129638671875,116.654296875,-254.2333984375,3,131.28662109375,195.962646484375,79.33251953125,0.0,0.0,0.0,0.0,0.0011111111111111111,0.0011111111111111111,-0.0,-0.19,1.83,9.7,11.698639872000001
1671151631.44446,0,-144.62591552734375,194.8271484375,140.619873046875,1,-107.500732421875,115.7265625,-242.640625,2,-55.37896728515625,116.63232421875,-254.26904296875,3,131.29541015625,195.9658203125,79.352783203125,0.0,0.0,0.0,0.0,0.0011111111111111111,0.0011111111111111111,-0.0,-0.19,1.83,9.7,11.698639872000001
1671151631.4544113,0,-144.7196044921875,194.712646484375,140.670654296875,1,-107.41851806640625,115.668212890625,-242.62353515625,2,-55.32196044921875,116.615478515625,-254.227783203125,3,131.2442626953125,195.970947265625,79.38525390625,0.0,0.0,0.0,0.0,0.0011111111111111111,0.0011111111111111111,-0.0,-0.19,1.83,9.7,11.698639872000001
1671151631.4644034,0,-144.5899658203125,194.822021484375,140.579833984375,1,-107.5745849609375,115.70849609375,-242.630615234375,2,-55.38018798828125,116.620849609375,-254.2724609375,3,131.336181640625,195.918212890625,79.365966796875,0.0,0.0,0.0,0.0,-0.28444444444444444,0.0011111111111111111,-0.0011111111111111111,-0.16,1.82,9.7,11.6920528
1671151631.474485,0,-144.657470703125,194.8388671875,140.594482421875,1,-107.5015869140625,115.7060546875,-242.6455078125,2,-55.38250732421875,116.649658203125,-254.280517578125,3,131.295166015625,196.002197265625,79.39013671875,0.0,0.0,0.0,0.0,-0.28444444444444444,0.0011111111111111111,-0.0011111111111111111,-0.16,1.82,9.7,11.6920528
1671151631.48444,0,-144.6226806640625,194.840576171875,140.6669921875,1,-107.4462890625,115.6787109375,-242.575439453125,2,-55.36334228515625,116.63330078125,-254.283447265625,3,131.2900390625,195.956787109375,79.363037109375,0.0,0.0,0.0,0.0,-0.28444444444444444,0.0011111111111111111,-0.0011111111111111111,-0.16,1.82,9.7,11.6920528
1671151631.494436,0,-144.64117431640625,194.830078125,140.646484375,1,-107.4744873046875,115.71337890625,-242.619873046875,2,-55.38861083984375,116.6474609375,-254.287841796875,3,131.2962646484375,195.964599609375,79.37744140625,0.0,0.0,0.0,0.0,-0.28444444444444444,0.0011111111111111111,-0.0011111111111111111,-0.16,1.82,9.7,11.6920528
1671151631.5043955,0,-144.7198486328125,194.755615234375,140.680908203125,1,-107.390869140625,115.69775390625,-242.60693359375,2,-55.28564453125,116.605712890625,-254.2548828125,3,131.2984619140625,195.929931640625,79.411376953125,0.0,0.0,0.0,0.0,-0.28444444444444444,0.0011111111111111111,-0.0011111111111111111,-0.16,1.82,9.7,11.6920528
1671151631.5144153,0,-144.63153076171875,194.799560546875,140.576171875,1,-107.491455078125,115.699462890625,-242.63671875,2,-55.39605712890625,116.63427734375,-254.266357421875,3,131.359619140625,195.91162109375,79.395263671875,0.0,0.0,0.0,0.0,0.0,-0.0,-0.0011111111111111111,-0.16,1.85,9.64,11.718401088
1671151631.5243635,0,-144.67437744140625,194.7890625,140.597412109375,1,-107.540771484375,115.70751953125,-242.650390625,2,-55.31658935546875,116.586181640625,-254.23974609375,3,131.3291015625,195.91943359375,79.396240234375,0.0,0.0,0.0,0.0,0.0,-0.0,-0.0011111111111111111,-0.16,1.85,9.64,11.718401088
1671151631.5343735,0,-144.68402099609375,194.758544921875,140.674560546875,1,-107.3739013671875,115.687744140625,-242.61181640625,2,-55.34625244140625,116.625,-254.262939453125,3,131.2874755859375,195.89501953125,79.368408203125,0.0,0.0,0.0,0.0,0.0,-0.0,-0.0011111111111111111,-0.16,1.85,9.64,11.718401088
1671151631.5443714,0,-144.67059326171875,194.76318359375,140.6728515625,1,-107.5489501953125,115.701171875,-242.620849609375,2,-55.33197021484375,116.625,-254.28125,3,131.2435302734375,195.888916015625,79.409912109375,0.0,0.0,0.0,0.0,0.0,-0.0,-0.0011111111111111111,-0.16,1.85,9.64,11.718401088
1671151631.5543573,0,-144.6470947265625,194.81201171875,140.64208984375,1,-107.4830322265625,115.728271484375,-242.60498046875,2,-55.3206787109375,116.609375,-254.27001953125,3,131.2564697265625,195.964599609375,79.413818359375,0.0,0.0,0.0,0.0,0.0022222222222222222,-0.0033333333333333335,-0.0011111111111111111,-0.18,1.83,9.69,11.698639872000001
1671151631.5643613,0,-144.68939208984375,194.792236328125,140.6142578125,1,-107.513916015625,115.69189453125,-242.643310546875,2,-55.3592529296875,116.622314453125,-254.236083984375,3,131.2723388671875,195.946044921875,79.376953125,0.0,0.0,0.0,0.0,0.0022222222222222222,-0.0033333333333333335,-0.0011111111111111111,-0.18,1.83,9.69,11.698639872000001
1671151631.5743833,0,-144.6043701171875,194.838623046875,140.57275390625,1,-107.5205078125,115.68798828125,-242.630859375,2,-55.31854248046875,116.601318359375,-254.25830078125,3,131.2572021484375,195.955322265625,79.404052734375,0.0,0.0,0.0,0.0,0.0022222222222222222,-0.0033333333333333335,-0.0011111111111111111,-0.18,1.83,9.69,11.698639872000001
1671151631.5843651,0,-144.6846923828125,194.756103515625,140.676025390625,1,-107.4423828125,115.7109375,-242.628173828125,2,-55.35479736328125,116.624755859375,-254.271240234375,3,131.2791748046875,195.90380859375,79.37353515625,0.0,0.0,0.0,0.0,0.0022222222222222222,-0.0033333333333333335,-0.0011111111111111111,-0.18,1.83,9.69,11.698639872000001
1671151631.5943964,0,-144.59942626953125,194.8037109375,140.645751953125,1,-107.53369140625,115.693359375,-242.622314453125,2,-55.4000244140625,116.636962890625,-254.266845703125,3,131.2650146484375,195.87890625,79.419189453125,0.0,0.0,0.0,0.0,0.0022222222222222222,-0.0033333333333333335,-0.0011111111111111111,-0.18,1.83,9.69,11.698639872000001
1671151631.604395,0,-144.60003662109375,194.787353515625,140.677978515625,1,-107.48858642578125,115.710693359375,-242.617919921875,2,-55.3121337890625,116.607421875,-254.21484375,3,131.27587890625,195.923828125,79.4189453125,0.0,0.0,0.0,0.0,0.0022222222222222222,-0.0033333333333333335,-0.0011111111111111111,-0.18,1.83,9.69,11.698639872000001
1671151631.6144366,0,-144.64013671875,194.826904296875,140.59423828125,1,-107.4832763671875,115.626953125,-242.60302734375,2,-55.3770751953125,116.6357421875,-254.258544921875,3,131.3135986328125,195.9169921875,79.432373046875,0.0,0.0,0.0,0.0,0.0022222222222222222,-0.0033333333333333335,-0.0011111111111111111,-0.18,1.83,9.69,11.698639872000001
1671151631.6243572,0,-144.58349609375,194.8271484375,140.60888671875,1,-107.4652099609375,115.657958984375,-242.602783203125,2,-55.33837890625,116.64208984375,-254.25634765625,3,131.3009033203125,195.851806640625,79.453125,0.0,0.0,0.0,0.0,0.0022222222222222222,0.0022222222222222222,-0.0033333333333333335,-0.17,1.84,9.71,11.698639872000001
1671151631.6343849,0,-144.6497802734375,194.770263671875,140.661376953125,1,-107.4002685546875,115.687255859375,-242.609130859375,2,-55.3671875,116.652587890625,-254.244384765625,3,131.293701171875,195.873779296875,79.3857421875,0.0,0.0,0.0,0.0,0.0022222222222222222,0.0022222222222222222,-0.0033333333333333335,-0.17,1.84,9.71,11.698639872000001
1671151631.644392,0,-144.75762939453125,194.69970703125,140.703125,1,-107.50579833984375,115.66552734375,-242.632568359375,2,-55.42950439453125,116.65673828125,-254.255859375,3,131.2591552734375,195.911376953125,79.39697265625,0.0,0.0,0.0,0.0,0.0022222222222222222,0.0022222222222222222,-0.0033333333333333335,-0.17,1.84,9.71,11.698639872000001
1671151631.654412,0,-144.6715087890625,194.80712890625,140.64111328125,1,-107.3973388671875,115.701904296875,-242.610595703125,2,-55.357177734375,116.642822265625,-254.25244140625,3,131.2166748046875,195.969482421875,79.405029296875,0.0,0.0,0.0,0.0,0.0022222222222222222,0.0022222222222222222,-0.0033333333333333335,-0.17,1.84,9.71,11.698639872000001
1671151631.6643577,0,-144.6141357421875,194.8251953125,140.578369140625,1,-107.4920654296875,115.708251953125,-242.629150390625,2,-55.37091064453125,116.622314453125,-254.259033203125,3,131.3162841796875,195.94873046875,79.4091796875,0.0,0.0,0.0,0.0,0.0022222222222222222,0.0022222222222222222,-0.0033333333333333335,-0.17,1.84,9.71,11.698639872000001
1671151631.6743524,0,-144.64996337890625,194.7353515625,140.63427734375,1,-107.549560546875,115.74072265625,-242.6396484375,2,-55.36773681640625,116.604248046875,-254.233154296875,3,131.2855224609375,195.961181640625,79.4013671875,0.0,0.0,0.0,0.0,-0.28444444444444444,-0.0,-0.0022222222222222222,-0.17,1.85,9.64,11.698639872000001
1671151631.6843505,0,-144.6519775390625,194.837158203125,140.638916015625,1,-107.403564453125,115.73486328125,-242.6572265625,2,-55.38116455078125,116.632080078125,-254.263671875,3,131.2685546875,195.922119140625,79.34326171875,0.0,0.0,0.0,0.0,-0.28444444444444444,-0.0,-0.0022222222222222222,-0.17,1.85,9.64,11.698639872000001
1671151631.6943557,0,-144.601806640625,194.8427734375,140.6181640625,1,-107.4842529296875,115.722412109375,-242.68359375,2,-55.37750244140625,116.6376953125,-254.258056640625,3,131.2904052734375,195.924560546875,79.358642578125,0.0,0.0,0.0,0.0,-0.28444444444444444,-0.0,-0.0022222222222222222,-0.17,1.85,9.64,11.698639872000001
1671151631.704363,0,-144.61968994140625,194.85107421875,140.619140625,1,-107.40887451171875,115.770263671875,-242.665771484375,2,-55.30816650390625,116.60400390625,-254.24462890625,3,131.2720947265625,195.9873046875,79.3916015625,0.0,0.0,0.0,0.0,0.0011111111111111111,0.2822222222222222,-0.0011111111111111111,-0.18,1.82,9.7,11.718401088
1671151631.714389,0,-144.66888427734375,194.802490234375,140.623291015625,1,-107.46759033203125,115.753662109375,-242.682373046875,2,-55.36016845703125,116.64794921875,-254.2626953125,3,131.2681884765625,195.979736328125,79.3623046875,0.0,0.0,0.0,0.0,0.0011111111111111111,0.2822222222222222,-0.0011111111111111111,-0.18,1.82,9.7,11.718401088
1671151631.7243602,0,-144.60748291015625,194.79443359375,140.584228515625,1,-107.4998779296875,115.75634765625,-242.65625,2,-55.33258056640625,116.633544921875,-254.232421875,3,131.343994140625,195.971435546875,79.4033203125,0.0,0.0,0.0,0.0,0.0011111111111111111,0.2822222222222222,-0.0011111111111111111,-0.18,1.82,9.7,11.718401088
1671151631.7343886,0,-144.59637451171875,194.851806640625,140.639404296875,1,-107.37841796875,115.7138671875,-242.666748046875,2,-55.3636474609375,116.630859375,-254.248291015625,3,131.3184814453125,195.9189453125,79.37939453125,0.0,0.0,0.0,0.0,0.0011111111111111111,0.2822222222222222,-0.0011111111111111111,-0.18,1.82,9.7,11.718401088
1671151631.7443914,0,-144.5604248046875,194.87451171875,140.617431640625,1,-107.48834228515625,115.74560546875,-242.666015625,2,-55.36724853515625,116.6494140625,-254.271240234375,3,131.3096923828125,195.91552734375,79.386962890625,0.0,0.0,0.0,0.0,0.0011111111111111111,0.2822222222222222,-0.0011111111111111111,-0.18,1.82,9.7,11.718401088
1671151631.754413,0,-144.70611572265625,194.774658203125,140.67041015625,1,-107.39208984375,115.714599609375,-242.667724609375,2,-55.37213134765625,116.63623046875,-254.20068359375,3,131.2579345703125,195.94873046875,79.408203125,0.0,0.0,0.0,0.0,0.0011111111111111111,0.2822222222222222,-0.0011111111111111111,-0.18,1.82,9.7,11.718401088
1671151631.7644594,0,-144.59820556640625,194.841796875,140.572021484375,1,-107.510498046875,115.748779296875,-242.65673828125,2,-55.39190673828125,116.646728515625,-254.25,3,131.2904052734375,195.9794921875,79.390869140625,0.0,0.0,0.0,0.0,0.0,-0.0,0.0011111111111111111,-0.17,1.84,9.69,11.695346336
1671151631.7744262,0,-144.66900634765625,194.812255859375,140.60009765625,1,-107.4764404296875,115.70166015625,-242.6591796875,2,-55.32806396484375,116.59130859375,-254.24658203125,3,131.29833984375,195.9921875,79.335205078125,0.0,0.0,0.0,0.0,0.0,-0.0,0.0011111111111111111,-0.17,1.84,9.69,11.695346336
1671151631.7843926,0,-144.71612548828125,194.741943359375,140.65966796875,1,-107.39208984375,115.694580078125,-242.63916015625,2,-55.35272216796875,116.6455078125,-254.264892578125,3,131.2794189453125,195.93505859375,79.33837890625,0.0,0.0,0.0,0.0,0.0,-0.0,0.0011111111111111111,-0.17,1.84,9.69,11.695346336
1671151631.7944574,0,-144.74945068359375,194.686767578125,140.70556640625,1,-107.4359130859375,115.70068359375,-242.634765625,2,-55.3330078125,116.614501953125,-254.232421875,3,131.275146484375,195.962158203125,79.376953125,0.0,0.0,0.0,0.0,0.0,-0.0,0.0011111111111111111,-0.17,1.84,9.69,11.695346336
1671151631.8045723,0,-144.6180419921875,194.83544921875,140.61474609375,1,-107.4447021484375,115.72900390625,-242.638427734375,2,-55.28765869140625,116.603515625,-254.252685546875,3,131.2830810546875,195.94775390625,79.426025390625,0.0,0.0,0.0,0.0,0.0,-0.0,0.0011111111111111111,-0.17,1.84,9.69,11.695346336
1671151631.8144958,0,-144.66314697265625,194.80029296875,140.62353515625,1,-107.5113525390625,115.72412109375,-242.625,2,-55.32159423828125,116.60888671875,-254.27685546875,3,131.24072265625,195.99755859375,79.38525390625,0.0,0.0,0.0,0.0,0.0,0.0011111111111111111,-0.0,-0.18,1.84,9.68,11.70852048
1671151631.8245597,0,-144.64202880859375,194.772705078125,140.60498046875,1,-107.50341796875,115.72412109375,-242.629638671875,2,-55.2818603515625,116.568115234375,-254.214599609375,3,131.2996826171875,195.951416015625,79.3916015625,0.0,0.0,0.0,0.0,0.0,0.0011111111111111111,-0.0,-0.18,1.84,9.68,11.70852048
1671151631.834479,0,-144.62969970703125,194.82568359375,140.6279296875,1,-107.41864013671875,115.68603515625,-242.591552734375,2,-55.36077880859375,116.613037109375,-254.240234375,3,131.2650146484375,195.906982421875,79.40185546875,0.0,0.0,0.0,0.0,0.0,0.0011111111111111111,-0.0,-0.18,1.84,9.68,11.70852048
1671151631.8444016,0,-144.61376953125,194.854248046875,140.626220703125,1,-107.4710693359375,115.6611328125,-242.626708984375,2,-55.35906982421875,116.60107421875,-254.2646484375,3,131.265625,195.90185546875,79.38525390625,0.0,0.0,0.0,0.0,0.0,0.0011111111111111111,-0.0,-0.18,1.84,9.68,11.70852048
1671151631.854464,0,-144.6220703125,194.8486328125,140.634033203125,1,-107.3663330078125,115.70556640625,-242.6416015625,2,-55.33465576171875,116.613525390625,-254.227783203125,3,131.317138671875,195.890380859375,79.38818359375,0.0,0.0,0.0,0.0,0.0,0.0011111111111111111,-0.0,-0.18,1.84,9.68,11.70852048
1671151631.8644516,0,-144.62286376953125,194.772705078125,140.595947265625,1,-107.4521484375,115.6552734375,-242.624755859375,2,-55.36065673828125,116.60400390625,-254.252197265625,3,131.248046875,195.945068359375,79.391357421875,0.0,0.0,0.0,0.0,-0.28444444444444444,0.0033333333333333335,0.0022222222222222222,-0.17,1.85,9.71,11.701933408
1671151631.8743987,0,-144.58111572265625,194.822265625,140.58642578125,1,-107.46185302734375,115.66015625,-242.611328125,2,-55.31591796875,116.59326171875,-254.24267578125,3,131.3326416015625,195.89453125,79.42822265625,0.0,0.0,0.0,0.0,-0.28444444444444444,0.0033333333333333335,0.0022222222222222222,-0.17,1.85,9.71,11.701933408
1671151631.8843758,0,-144.5477294921875,194.857177734375,140.612060546875,1,-107.400390625,115.680908203125,-242.614013671875,2,-55.40106201171875,116.617919921875,-254.27587890625,3,131.253662109375,195.919189453125,79.368408203125,0.0,0.0,0.0,0.0,-0.28444444444444444,0.0033333333333333335,0.0022222222222222222,-0.17,1.85,9.71,11.701933408
1671151631.8943837,0,-144.610107421875,194.87255859375,140.62109375,1,-107.4766845703125,115.70361328125,-242.607421875,2,-55.37774658203125,116.612548828125,-254.255615234375,3,131.268798828125,195.885009765625,79.404541015625,0.0,0.0,0.0,0.0,-0.28444444444444444,0.0033333333333333335,0.0022222222222222222,-0.17,1.85,9.71,11.701933408
1671151631.9043872,0,-144.58807373046875,194.828369140625,140.60888671875,1,-107.41583251953125,115.686767578125,-242.607177734375,2,-55.35101318359375,116.597412109375,-254.22705078125,3,131.2236328125,195.926513671875,79.403564453125,0.0,0.0,0.0,0.0,-0.28444444444444444,0.0033333333333333335,0.0022222222222222222,-0.17,1.85,9.71,11.701933408
1671151631.9144351,0,-144.6224365234375,194.835205078125,140.591796875,1,-107.4869384765625,115.69091796875,-242.6474609375,2,-55.39678955078125,116.626220703125,-254.261962890625,3,131.3004150390625,195.9345703125,79.409423828125,0.0,0.0,0.0,0.0,-0.28444444444444444,0.0033333333333333335,0.0022222222222222222,-0.17,1.85,9.71,11.701933408
1671151631.9243245,0,-144.62408447265625,194.80224609375,140.597900390625,1,-107.534912109375,115.724609375,-242.638916015625,2,-55.30615234375,116.564208984375,-254.223388671875,3,131.2445068359375,195.968994140625,79.404296875,0.0,0.0,0.0,0.0,-0.0022222222222222222,0.0022222222222222222,0.0011111111111111111,-0.19,1.84,9.71,11.718401088
1671151631.9343686,0,-144.5560302734375,194.8505859375,140.599853515625,1,-107.38458251953125,115.740234375,-242.657470703125,2,-55.34918212890625,116.626953125,-254.2685546875,3,131.2789306640625,195.916015625,79.322265625,0.0,0.0,0.0,0.0,-0.0022222222222222222,0.0022222222222222222,0.0011111111111111111,-0.19,1.84,9.71,11.718401088
1671151631.9443717,0,-144.55126953125,194.85693359375,140.6171875,1,-107.44921875,115.735107421875,-242.67919921875,2,-55.33709716796875,116.6279296875,-254.25439453125,3,131.2796630859375,195.919189453125,79.3701171875,0.0,0.0,0.0,0.0,-0.0022222222222222222,0.0022222222222222222,0.0011111111111111111,-0.19,1.84,9.71,11.718401088
1671151631.954426,0,-144.5557861328125,194.87646484375,140.582275390625,1,-107.4295654296875,115.72705078125,-242.64697265625,2,-55.31903076171875,116.600830078125,-254.2421875,3,131.328125,195.928466796875,79.367431640625,0.0,0.0,0.0,0.0,-0.0022222222222222222,0.0022222222222222222,0.0011111111111111111,-0.19,1.84,9.71,11.718401088
1671151631.9644208,0,-144.57421875,194.8505859375,140.558349609375,1,-107.564208984375,115.763427734375,-242.6630859375,2,-55.32977294921875,116.638916015625,-254.257080078125,3,131.26171875,195.97900390625,79.40869140625,0.0,0.0,0.0,0.0,-0.0011111111111111111,-0.0,-0.0,-0.15,1.84,9.67,11.705226944
1671151631.9745145,0,-144.547119140625,194.873779296875,140.554931640625,1,-107.5169677734375,115.717529296875,-242.629638671875,2,-55.30889892578125,116.60009765625,-254.22314453125,3,131.3077392578125,195.888427734375,79.417236328125,0.0,0.0,0.0,0.0,-0.0011111111111111111,-0.0,-0.0,-0.15,1.84,9.67,11.705226944
1671151631.9844332,0,-144.53912353515625,194.91162109375,140.601318359375,1,-107.4373779296875,115.753662109375,-242.618896484375,2,-55.38336181640625,116.63916015625,-254.256103515625,3,131.244140625,195.925537109375,79.385986328125,0.0,0.0,0.0,0.0,-0.0011111111111111111,-0.0,-0.0,-0.15,1.84,9.67,11.705226944
1671151631.9944563,0,-144.528564453125,194.925537109375,140.5693359375,1,-107.4964599609375,115.7109375,-242.627197265625,2,-55.36309814453125,116.627685546875,-254.264404296875,3,131.2686767578125,195.911376953125,79.371826171875,0.0,0.0,0.0,0.0,-0.0011111111111111111,-0.0,-0.0,-0.15,1.84,9.67,11.705226944
1671151632.0045102,0,-144.553466796875,194.878173828125,140.590087890625,1,-107.4326171875,115.72021484375,-242.609619140625,2,-55.32342529296875,116.599609375,-254.245361328125,3,131.2720947265625,195.933837890625,79.39794921875,0.0,0.0,0.0,0.0,-0.0011111111111111111,-0.0,-0.0,-0.15,1.84,9.67,11.705226944
1671151632.014464,0,-144.5390625,194.877197265625,140.56640625,1,-107.5196533203125,115.72705078125,-242.643798828125,2,-55.36419677734375,116.609375,-254.2734375,3,131.2679443359375,195.90185546875,79.406494140625,0.0,0.0,0.0,0.0,-0.0011111111111111111,-0.0011111111111111111,0.0022222222222222222,-0.17,1.84,9.72,11.6920528
1671151632.024386,0,-144.5438232421875,194.893310546875,140.558837890625,1,-107.47161865234375,115.677001953125,-242.6181640625,2,-55.31866455078125,116.63623046875,-254.31201171875,3,131.2689208984375,195.9208984375,79.400390625,0.0,0.0,0.0,0.0,-0.0011111111111111111,-0.0011111111111111111,0.0022222222222222222,-0.17,1.84,9.72,11.6920528
1671151632.0344472,0,-144.60858154296875,194.740478515625,140.66796875,1,-107.4241943359375,115.75048828125,-242.658935546875,2,-55.37335205078125,116.62744140625,-254.2763671875,3,131.2618408203125,195.91357421875,79.39794921875,0.0,0.0,0.0,0.0,-0.0011111111111111111,-0.0011111111111111111,0.0022222222222222222,-0.17,1.84,9.72,11.6920528
1671151632.0444155,0,-144.597900390625,194.847412109375,140.648681640625,1,-107.45123291015625,115.765380859375,-242.65380859375,2,-55.41241455078125,116.643310546875,-254.26416015625,3,131.2813720703125,195.91015625,79.3857421875,0.0,0.0,0.0,0.0,-0.0011111111111111111,-0.0011111111111111111,0.0022222222222222222,-0.17,1.84,9.72,11.6920528
1671151632.054587,0,-144.57952880859375,194.865966796875,140.614990234375,1,-107.38818359375,115.72998046875,-242.6484375,2,-55.33941650390625,116.577880859375,-254.236572265625,3,131.3082275390625,195.92919921875,79.390625,0.0,0.0,0.0,0.0,-0.0011111111111111111,-0.0011111111111111111,0.0022222222222222222,-0.17,1.84,9.72,11.6920528
1671151632.0644484,0,-144.5521240234375,194.859375,140.58642578125,1,-107.47100830078125,115.736328125,-242.659912109375,2,-55.36724853515625,116.633056640625,-254.2548828125,3,131.323486328125,195.986083984375,79.41162109375,0.0,0.0,0.0,0.0,-0.0011111111111111111,-0.0,-0.0011111111111111111,-0.17,1.83,9.72,11.718401088
1671151632.0744133,0,-144.5594482421875,194.87353515625,140.57763671875,1,-107.55078125,115.7529296875,-242.6796875,2,-55.34954833984375,116.608642578125,-254.227783203125,3,131.2696533203125,195.936767578125,79.4150390625,0.0,0.0,0.0,0.0,-0.0011111111111111111,-0.0,-0.0011111111111111111,-0.17,1.83,9.72,11.718401088
1671151632.0843856,0,-144.65789794921875,194.7802734375,140.663818359375,1,-107.43634033203125,115.771728515625,-242.650146484375,2,-55.380859375,116.615478515625,-254.255615234375,3,131.2711181640625,195.89501953125,79.372314453125,0.0,0.0,0.0,0.0,-0.0011111111111111111,-0.0,-0.0011111111111111111,-0.17,1.83,9.72,11.718401088
1671151632.094382,0,-144.69036865234375,194.805908203125,140.6455078125,1,-107.5233154296875,115.760498046875,-242.651611328125,2,-55.36077880859375,116.62451171875,-254.277099609375,3,131.2691650390625,195.910888671875,79.344482421875,0.0,0.0,0.0,0.0,-0.0011111111111111111,-0.0,-0.0011111111111111111,-0.17,1.83,9.72,11.718401088
1671151632.104518,0,-144.6436767578125,194.8193359375,140.650634765625,1,-107.436279296875,115.730712890625,-242.622314453125,2,-55.36383056640625,116.595458984375,-254.22900390625,3,131.2845458984375,195.9404296875,79.3994140625,0.0,0.0,0.0,0.0,-0.0011111111111111111,-0.0,-0.0011111111111111111,-0.17,1.83,9.72,11.718401088
1671151632.1144888,0,-144.5712890625,194.82763671875,140.62255859375,1,-107.43408203125,115.726806640625,-242.61962890625,2,-55.4056396484375,116.65380859375,-254.260009765625,3,131.2353515625,195.9580078125,79.4248046875,0.0,0.0,0.0,0.0,0.0022222222222222222,0.0022222222222222222,-0.0,-0.17,1.81,9.72,11.711814016
1671151632.1245384,0,-144.58990478515625,194.838623046875,140.60205078125,1,-107.48187255859375,115.674560546875,-242.628173828125,2,-55.35101318359375,116.586669921875,-254.23876953125,3,131.3099365234375,195.90087890625,79.44580078125,0.0,0.0,0.0,0.0,0.0022222222222222222,0.0022222222222222222,-0.0,-0.17,1.81,9.72,11.711814016
1671151632.134573,0,-144.588623046875,194.8505859375,140.6103515625,1,-107.4364013671875,115.70458984375,-242.63671875,2,-55.38433837890625,116.633056640625,-254.2451171875,3,131.3065185546875,195.905517578125,79.40625,0.0,0.0,0.0,0.0,0.0022222222222222222,0.0022222222222222222,-0.0,-0.17,1.81,9.72,11.711814016
1671151632.1444333,0,-144.6844482421875,194.84130859375,140.665283203125,1,-107.51263427734375,115.6767578125,-242.650390625,2,-55.35528564453125,116.61376953125,-254.271484375,3,131.2618408203125,195.892578125,79.393798828125,0.0,0.0,0.0,0.0,0.0022222222222222222,0.0022222222222222222,-0.0,-0.17,1.81,9.72,11.711814016
1671151632.1544423,0,-144.69586181640625,194.8134765625,140.675048828125,1,-107.360107421875,115.7080078125,-242.646240234375,2,-55.37664794921875,116.62109375,-254.22607421875,3,131.2755126953125,195.956298828125,79.416748046875,0.0,0.0,0.0,0.0,0.0022222222222222222,0.0022222222222222222,-0.0,-0.17,1.81,9.72,11.711814016
1671151632.1644468,0,-144.5936279296875,194.812744140625,140.6103515625,1,-107.51043701171875,115.740478515625,-242.642333984375,2,-55.39398193359375,116.633056640625,-254.22900390625,3,131.2652587890625,195.926025390625,79.452392578125,0.0,0.0,0.0,0.0,0.0022222222222222222,-0.0011111111111111111,0.0011111111111111111,-0.17,1.82,9.7,11.695346336
1671151632.1745713,0,-144.712646484375,194.756103515625,140.6708984375,1,-107.46240234375,115.71142578125,-242.65625,2,-55.37493896484375,116.625244140625,-254.251220703125,3,131.268798828125,195.98486328125,79.373046875,0.0,0.0,0.0,0.0,0.0022222222222222222,-0.0011111111111111111,0.0011111111111111111,-0.17,1.82,9.7,11.695346336
1671151632.184371,0,-144.6990966796875,194.777099609375,140.675537109375,1,-107.43115234375,115.73193359375,-242.640869140625,2,-55.3900146484375,116.662109375,-254.265380859375,3,131.2750244140625,195.911376953125,79.4013671875,0.0,0.0,0.0,0.0,0.0022222222222222222,-0.0011111111111111111,0.0011111111111111111,-0.17,1.82,9.7,11.695346336
1671151632.194403,0,-144.617919921875,194.826171875,140.648681640625,1,-107.48211669921875,115.70849609375,-242.63623046875,2,-55.40594482421875,116.658203125,-254.26416015625,3,131.29345703125,195.877197265625,79.4248046875,0.0,0.0,0.0,0.0,0.0022222222222222222,-0.0011111111111111111,0.0011111111111111111,-0.17,1.82,9.7,11.695346336
1671151632.2044187,0,-144.6151123046875,194.81640625,140.64013671875,1,-107.3905029296875,115.69287109375,-242.6337890625,2,-55.33648681640625,116.612060546875,-254.24365234375,3,131.2828369140625,195.93603515625,79.411865234375,0.0,0.0,0.0,0.0,-0.0011111111111111111,-0.2822222222222222,-0.0022222222222222222,-0.18,1.84,9.7,11.718401088
1671151632.214485,0,-144.63800048828125,194.814697265625,140.591064453125,1,-107.4864501953125,115.695556640625,-242.576416015625,2,-55.4176025390625,116.662841796875,-254.26416015625,3,131.317138671875,195.9033203125,79.44873046875,0.0,0.0,0.0,0.0,-0.0011111111111111111,-0.2822222222222222,-0.0022222222222222222,-0.18,1.84,9.7,11.718401088
1671151632.2244265,0,-144.5433349609375,194.88525390625,140.56689453125,1,-107.48724365234375,115.68017578125,-242.60791015625,2,-55.28564453125,116.551513671875,-254.238037109375,3,131.2960205078125,195.870849609375,79.44921875,0.0,0.0,0.0,0.0,-0.0011111111111111111,-0.2822222222222222,-0.0022222222222222222,-0.18,1.84,9.7,11.718401088
1671151632.234478,0,-144.67156982421875,194.79248046875,140.652099609375,1,-107.45489501953125,115.699951171875,-242.630126953125,2,-55.37237548828125,116.655029296875,-254.260498046875,3,131.276611328125,195.853515625,79.414794921875,0.0,0.0,0.0,0.0,-0.0011111111111111111,-0.2822222222222222,-0.0022222222222222222,-0.18,1.84,9.7,11.718401088
1671151632.2444808,0,-144.5836181640625,194.838134765625,140.637451171875,1,-107.499267578125,115.720947265625,-242.628662109375,2,-55.40606689453125,116.6416015625,-254.261474609375,3,131.2744140625,195.9228515625,79.374267578125,0.0,0.0,0.0,0.0,-0.0011111111111111111,-0.2822222222222222,-0.0022222222222222222,-0.18,1.84,9.7,11.718401088
1671151632.254544,0,-144.64013671875,194.7275390625,140.68310546875,1,-107.41534423828125,115.712890625,-242.637451171875,2,-55.32196044921875,116.598876953125,-254.255615234375,3,131.2789306640625,195.919677734375,79.42041015625,0.0,0.0,0.0,0.0,-0.0011111111111111111,-0.2822222222222222,-0.0022222222222222222,-0.18,1.84,9.7,11.718401088
1671151632.264486,0,-144.55926513671875,194.896240234375,140.55615234375,1,-107.457275390625,115.691162109375,-242.640625,2,-55.352294921875,116.62451171875,-254.267333984375,3,131.296875,195.88818359375,79.449462890625,0.0,0.0,0.0,0.0,-0.0011111111111111111,-0.2822222222222222,-0.0022222222222222222,-0.18,1.84,9.7,11.718401088
1671151632.2744534,0,-144.64825439453125,194.83251953125,140.59814453125,1,-107.46942138671875,115.7060546875,-242.642578125,2,-55.33026123046875,116.58251953125,-254.263427734375,3,131.3084716796875,195.958984375,79.391357421875,0.0,0.0,0.0,0.0,-0.0011111111111111111,-0.2822222222222222,-0.0022222222222222222,-0.18,1.84,9.7,11.718401088
1671151632.2844224,0,-144.5799560546875,194.838623046875,140.66064453125,1,-107.4300537109375,115.75537109375,-242.638916015625,2,-55.35382080078125,116.6123046875,-254.268310546875,3,131.2701416015625,195.91845703125,79.397705078125,0.0,0.0,0.0,0.0,-0.0011111111111111111,-0.2822222222222222,-0.0022222222222222222,-0.18,1.84,9.7,11.718401088
1671151632.294425,0,-144.54345703125,194.884765625,140.626708984375,1,-107.47430419921875,115.742431640625,-242.6494140625,2,-55.4039306640625,116.68212890625,-254.27783203125,3,131.3076171875,195.8818359375,79.40087890625,0.0,0.0,0.0,0.0,-0.0011111111111111111,-0.2822222222222222,-0.0022222222222222222,-0.18,1.84,9.7,11.718401088
1671151632.3043823,0,-144.56451416015625,194.825439453125,140.654052734375,1,-107.37579345703125,115.747314453125,-242.658203125,2,-55.40423583984375,116.64892578125,-254.2734375,3,131.2789306640625,195.921875,79.403564453125,0.0,0.0,0.0,0.0,-0.0011111111111111111,-0.2822222222222222,-0.0022222222222222222,-0.18,1.84,9.7,11.718401088
1671151632.3144557,0,-144.59075927734375,194.81201171875,140.558837890625,1,-107.441650390625,115.721923828125,-242.635498046875,2,-55.44873046875,116.6767578125,-254.270263671875,3,131.366455078125,195.923828125,79.380615234375,0.0,0.0,0.0,0.0,-0.0011111111111111111,-0.2822222222222222,-0.0022222222222222222,-0.18,1.84,9.7,11.718401088
1671151632.3244019,0,-144.60211181640625,194.803955078125,140.58642578125,1,-107.48779296875,115.812255859375,-242.730224609375,2,-55.3416748046875,116.604736328125,-254.244873046875,3,131.2833251953125,195.928466796875,79.380126953125,0.0,0.0,0.0,0.0,-0.0011111111111111111,-0.2822222222222222,-0.0022222222222222222,-0.18,1.84,9.7,11.718401088
1671151632.3344066,0,-144.72698974609375,194.69384765625,140.70166015625,1,-107.41717529296875,115.726806640625,-242.626220703125,2,-55.35491943359375,116.634765625,-254.251220703125,3,131.263916015625,195.910400390625,79.381103515625,0.0,0.0,0.0,0.0,-0.0011111111111111111,-0.2822222222222222,-0.0022222222222222222,-0.18,1.84,9.7,11.718401088
1671151632.344441,0,-144.59893798828125,194.814453125,140.630615234375,1,-107.5035400390625,115.779052734375,-242.63623046875,2,-55.37664794921875,116.6298828125,-254.24169921875,3,131.289306640625,195.915283203125,79.3876953125,0.0,0.0,0.0,0.0,-0.0011111111111111111,-0.2822222222222222,-0.0022222222222222222,-0.18,1.84,9.7,11.718401088
1671151632.3544796,0,-144.695556640625,194.79345703125,140.65673828125,1,-107.3955078125,115.74365234375,-242.641357421875,2,-55.36431884765625,116.6318359375,-254.240234375,3,131.2706298828125,195.943359375,79.430419921875,0.0,0.0,0.0,0.0,-0.0011111111111111111,-0.2822222222222222,-0.0022222222222222222,-0.18,1.84,9.7,11.718401088
1671151632.3644562,0,-144.624755859375,194.825439453125,140.58203125,1,-107.49298095703125,115.70166015625,-242.626953125,2,-55.36749267578125,116.642333984375,-254.2451171875,3,131.2889404296875,195.9345703125,79.406982421875,0.0,0.0,0.0,0.0,-0.0011111111111111111,-0.2822222222222222,-0.0022222222222222222,-0.18,1.84,9.7,11.718401088
1671151632.3745592,0,-144.6334228515625,194.80322265625,140.5712890625,1,-107.5257568359375,115.71044921875,-242.63720703125,2,-55.36834716796875,116.650390625,-254.25439453125,3,131.2557373046875,195.95947265625,79.415771484375,0.0,0.0,0.0,0.0,-0.0011111111111111111,-0.2822222222222222,-0.0022222222222222222,-0.18,1.84,9.7,11.718401088
1671151632.3845112,0,-144.66607666015625,194.7822265625,140.6513671875,1,-107.41357421875,115.722412109375,-242.619140625,2,-55.33233642578125,116.589111328125,-254.248291015625,3,131.2347412109375,195.89501953125,79.399169921875,0.0,0.0,0.0,0.0,-0.0011111111111111111,-0.2822222222222222,-0.0022222222222222222,-0.18,1.84,9.7,11.718401088
1671151632.3944807,0,-144.632568359375,194.83154296875,140.61181640625,1,-107.45196533203125,115.643798828125,-242.613525390625,2,-55.309326171875,116.576416015625,-254.2490234375,3,131.2652587890625,195.86767578125,79.40869140625,0.0,0.0,0.0,0.0,-0.0011111111111111111,-0.2822222222222222,-0.0022222222222222222,-0.18,1.84,9.7,11.718401088
1671151632.4044986,0,-144.640380859375,194.86083984375,140.63525390625,1,-107.4091796875,115.705322265625,-242.622802734375,2,-55.2769775390625,116.57666015625,-254.26318359375,3,131.285400390625,195.933837890625,79.431640625,0.0,0.0,0.0,0.0,-0.0011111111111111111,-0.2822222222222222,-0.0022222222222222222,-0.18,1.84,9.7,11.718401088
1671151632.4144566,0,-144.66070556640625,194.755859375,140.624755859375,1,-107.457275390625,115.7041015625,-242.642822265625,2,-55.29315185546875,116.588134765625,-254.242919921875,3,131.24658203125,195.93115234375,79.43310546875,0.0,0.0,0.0,0.0,-0.0011111111111111111,-0.2822222222222222,-0.0022222222222222222,-0.18,1.84,9.7,11.718401088
1671151632.4244037,0,-144.63775634765625,194.77734375,140.615966796875,1,-107.4488525390625,115.68994140625,-242.624755859375,2,-55.237548828125,116.531982421875,-254.24560546875,3,131.32275390625,195.905029296875,79.433837890625,0.0,0.0,0.0,0.0,-0.0011111111111111111,0.0022222222222222222,0.0011111111111111111,-0.18,1.83,9.72,11.70852048
1671151632.4343746,0,-144.60546875,194.840087890625,140.62548828125,1,-107.4432373046875,115.73193359375,-242.625,2,-55.3055419921875,116.574462890625,-254.244140625,3,131.2701416015625,195.89599609375,79.407958984375,0.0,0.0,0.0,0.0,-0.0011111111111111111,0.0022222222222222222,0.0011111111111111111,-0.18,1.83,9.72,11.70852048
1671151632.4443495,0,-144.67034912109375,194.734375,140.693115234375,1,-107.48095703125,115.7001953125,-242.63623046875,2,-55.3314208984375,116.583740234375,-254.232421875,3,131.292236328125,195.894287109375,79.36669921875,0.0,0.0,0.0,0.0,-0.0011111111111111111,0.0022222222222222222,0.0011111111111111111,-0.18,1.83,9.72,11.70852048
1671151632.4543908,0,-144.68914794921875,194.708984375,140.67431640625,1,-107.411865234375,115.69482421875,-242.59521484375,2,-55.223388671875,116.478759765625,-254.170654296875,3,131.2938232421875,195.929443359375,79.39990234375,0.0,0.0,0.0,0.0,-0.0011111111111111111,0.0022222222222222222,0.0011111111111111111,-0.18,1.83,9.72,11.70852048
1671151632.4643261,0,-144.65325927734375,194.82666015625,140.6044921875,1,-107.486083984375,115.686279296875,-242.65283203125,2,-55.38104248046875,116.631103515625,-254.2822265625,3,131.2728271484375,195.951904296875,79.37451171875,0.0,0.0,0.0,0.0,0.0,0.0011111111111111111,0.0022222222222222222,-0.17,1.85,9.69,11.70852048
1671151632.4743872,0,-144.7052001953125,194.71533203125,140.6162109375,1,-107.47686767578125,115.72607421875,-242.671630859375,2,-55.3197021484375,116.58349609375,-254.269287109375,3,131.271240234375,195.93798828125,79.37744140625,0.0,0.0,0.0,0.0,0.0,0.0011111111111111111,0.0022222222222222222,-0.17,1.85,9.69,11.70852048
1671151632.4843776,0,-144.6160888671875,194.81982421875,140.63037109375,1,-107.41400146484375,115.747314453125,-242.63916015625,2,-55.3890380859375,116.6484375,-254.266845703125,3,131.2860107421875,195.906494140625,79.358642578125,0.0,0.0,0.0,0.0,0.0,0.0011111111111111111,0.0022222222222222222,-0.17,1.85,9.69,11.70852048
1671151632.494391,0,-144.6964111328125,194.681640625,140.706298828125,1,-107.42547607421875,115.7041015625,-242.646484375,2,-55.35369873046875,116.6123046875,-254.278076171875,3,131.2840576171875,195.93896484375,79.35595703125,0.0,0.0,0.0,0.0,0.0,0.0011111111111111111,0.0022222222222222222,-0.17,1.85,9.69,11.70852048
1671151632.5044045,0,-144.57147216796875,194.830078125,140.61083984375,1,-107.31396484375,115.712890625,-242.64453125,2,-55.33441162109375,116.623779296875,-254.244140625,3,131.2548828125,195.990966796875,79.38916015625,0.0,0.0,0.0,0.0,-0.0033333333333333335,0.0011111111111111111,0.0011111111111111111,-0.18,1.84,9.69,11.718401088
1671151632.5144708,0,-144.576171875,194.813232421875,140.598388671875,1,-107.4627685546875,115.741455078125,-242.689697265625,2,-55.38885498046875,116.6337890625,-254.257568359375,3,131.268798828125,196.017578125,79.374267578125,0.0,0.0,0.0,0.0,-0.0033333333333333335,0.0011111111111111111,0.0011111111111111111,-0.18,1.84,9.69,11.718401088
1671151632.5243638,0,-144.56298828125,194.81201171875,140.590087890625,1,-107.381591796875,115.705810546875,-242.659912109375,2,-55.34088134765625,116.596435546875,-254.234375,3,131.2952880859375,195.99267578125,79.391357421875,0.0,0.0,0.0,0.0,-0.0033333333333333335,0.0011111111111111111,0.0011111111111111111,-0.18,1.84,9.69,11.718401088
1671151632.5343869,0,-144.558349609375,194.857421875,140.606201171875,1,-107.40606689453125,115.812744140625,-242.682373046875,2,-55.34600830078125,116.619384765625,-254.27978515625,3,131.297607421875,195.958984375,79.3310546875,0.0,0.0,0.0,0.0,-0.0033333333333333335,0.0011111111111111111,0.0011111111111111111,-0.18,1.84,9.69,11.718401088
1671151632.5445898,0,-144.55908203125,194.873291015625,140.6103515625,1,-107.50775146484375,115.820556640625,-242.695068359375,2,-55.44189453125,116.68701171875,-254.274169921875,3,131.3511962890625,195.97900390625,79.343505859375,0.0,0.0,0.0,0.0,-0.0033333333333333335,0.0011111111111111111,0.0011111111111111111,-0.18,1.84,9.69,11.718401088
1671151632.5544834,0,-144.56353759765625,194.88525390625,140.593505859375,1,-107.36590576171875,115.822021484375,-242.725830078125,2,-55.32440185546875,116.58056640625,-254.257080078125,3,131.3302001953125,196.0283203125,79.324951171875,0.0,0.0,0.0,0.0,0.0,-0.0,-0.0011111111111111111,-0.18,1.85,9.7,11.6920528
1671151632.5644324,0,-144.50909423828125,194.909912109375,140.531494140625,1,-107.431884765625,115.804443359375,-242.731689453125,2,-55.343505859375,116.6484375,-254.266357421875,3,131.2996826171875,196.00439453125,79.3466796875,0.0,0.0,0.0,0.0,0.0,-0.0,-0.0011111111111111111,-0.18,1.85,9.7,11.6920528
1671151632.574479,0,-144.58782958984375,194.846435546875,140.600830078125,1,-107.40069580078125,115.819091796875,-242.73486328125,2,-55.26287841796875,116.601318359375,-254.24853515625,3,131.289306640625,196.0439453125,79.36083984375,0.0,0.0,0.0,0.0,0.0,-0.0,-0.0011111111111111111,-0.18,1.85,9.7,11.6920528
1671151632.5844507,0,-144.5703125,194.8828125,140.61474609375,1,-107.311767578125,115.817138671875,-242.742431640625,2,-55.36273193359375,116.63134765625,-254.258544921875,3,131.282958984375,196.001708984375,79.31787109375,0.0,0.0,0.0,0.0,0.0,-0.0,-0.0011111111111111111,-0.18,1.85,9.7,11.6920528
1671151632.5945463,0,-144.5601806640625,194.8720703125,140.626708984375,1,-107.40631103515625,115.803466796875,-242.736572265625,2,-55.34466552734375,116.623046875,-254.265380859375,3,131.3170166015625,196.009521484375,79.3017578125,0.0,0.0,0.0,0.0,0.0,-0.0,-0.0011111111111111111,-0.18,1.85,9.7,11.6920528
1671151632.604405,0,-144.5657958984375,194.87109375,140.61376953125,1,-107.37158203125,115.829833984375,-242.70849609375,2,-55.32391357421875,116.60205078125,-254.263427734375,3,131.3128662109375,196.055419921875,79.324951171875,0.0,0.0,0.0,0.0,0.0,-0.0,-0.0011111111111111111,-0.18,1.85,9.7,11.6920528
1671151632.6145194,0,-144.51556396484375,194.89111328125,140.551025390625,1,-107.37579345703125,115.837158203125,-242.73583984375,2,-55.36968994140625,116.62841796875,-254.2744140625,3,131.3232421875,196.04443359375,79.368896484375,0.0,0.0,-0.0,0.0,-0.0022222222222222222,0.0022222222222222222,-0.0,-0.18,1.83,9.71,11.695346336
1671151632.6245117,0,-144.4227294921875,194.97314453125,140.4970703125,1,-107.394287109375,115.8623046875,-242.76025390625,2,-55.33221435546875,116.6015625,-254.254150390625,3,131.3397216796875,196.063720703125,79.30517578125,0.0,0.0,-0.0,0.0,-0.0022222222222222222,0.0022222222222222222,-0.0,-0.18,1.83,9.71,11.695346336
1671151632.634475,0,-144.5352783203125,194.8583984375,140.616455078125,1,-107.36126708984375,115.9072265625,-242.7421875,2,-55.3800048828125,116.627197265625,-254.2666015625,3,131.321044921875,195.99072265625,79.332275390625,0.0,0.0,-0.0,0.0,-0.0022222222222222222,0.0022222222222222222,-0.0,-0.18,1.83,9.71,11.695346336
1671151632.6445115,0,-144.57196044921875,194.84521484375,140.61083984375,1,-107.370849609375,115.81689453125,-242.76416015625,2,-55.3734130859375,116.67578125,-254.26513671875,3,131.3590087890625,196.0302734375,79.312744140625,0.0,0.0,-0.0,0.0,-0.0022222222222222222,0.0022222222222222222,-0.0,-0.18,1.83,9.71,11.695346336
1671151632.6544466,0,-144.50140380859375,194.936767578125,140.56298828125,1,-107.33538818359375,115.8876953125,-242.759521484375,2,-55.34674072265625,116.63623046875,-254.27197265625,3,131.3731689453125,196.041015625,79.333984375,0.0,0.0,-0.0,0.0,-0.0022222222222222222,0.0022222222222222222,-0.0,-0.18,1.83,9.71,11.695346336
1671151632.6644511,0,-144.5291748046875,194.863037109375,140.571533203125,1,-107.4495849609375,115.9052734375,-242.78662109375,2,-55.3409423828125,116.6181640625,-254.270263671875,3,131.379150390625,196.0703125,79.31103515625,0.0,0.0,-0.0,0.0,-0.0022222222222222222,0.0022222222222222222,-0.0,-0.18,1.83,9.71,11.695346336
1671151632.6744099,0,-144.52301025390625,194.92822265625,140.509521484375,1,-107.41619873046875,115.91259765625,-242.76220703125,2,-55.33831787109375,116.60595703125,-254.23193359375,3,131.3214111328125,196.08642578125,79.3134765625,0.0,0.0,12.5,12.5,0.0,0.0011111111111111111,-0.0011111111111111111,-0.19,1.83,9.65,11.701933408
1671151632.6843905,0,-144.5972900390625,194.875,140.602294921875,1,-107.3504638671875,115.882080078125,-242.7119140625,2,-55.33538818359375,116.60693359375,-254.2275390625,3,131.3397216796875,196.06982421875,79.264892578125,0.0,0.0,12.5,12.5,0.0,0.0011111111111111111,-0.0011111111111111111,-0.19,1.83,9.65,11.701933408
1671151632.694409,0,-144.54132080078125,194.902099609375,140.677490234375,1,-107.5760498046875,115.8623046875,-242.647705078125,2,-55.46844482421875,116.608642578125,-254.14208984375,3,131.313232421875,196.122802734375,79.1787109375,0.0,0.0,12.5,12.5,0.0,0.0011111111111111111,-0.0011111111111111111,-0.19,1.83,9.65,11.701933408
1671151632.7044332,0,-144.4368896484375,194.96923828125,140.87646484375,1,-107.61627197265625,115.87939453125,-242.359619140625,2,-55.73114013671875,116.64208984375,-253.929931640625,3,131.3106689453125,196.253173828125,79.15380859375,0.0,0.0,12.5,12.5,0.0,0.0011111111111111111,-0.0011111111111111111,-0.19,1.83,9.65,11.701933408
1671151632.7144134,0,-144.27557373046875,195.0146484375,141.185791015625,1,-107.892578125,115.92138671875,-242.062255859375,2,-55.91290283203125,116.662109375,-253.602783203125,3,131.4256591796875,196.227294921875,79.31591796875,0.0006235222060559895,0.0021583460978861174,15.5,15.5,0.0022222222222222222,-0.0011111111111111111,-0.0,-0.31,2.0,9.87,11.718401088
1671151632.7245293,0,-144.22772216796875,194.94775390625,141.75390625,1,-107.92938232421875,115.944580078125,-241.553466796875,2,-55.939208984375,116.6376953125,-253.0888671875,3,131.55224609375,196.13671875,79.7900390625,0.0006235222060559895,0.0021583460978861174,15.5,15.5,0.0022222222222222222,-0.0011111111111111111,-0.0,-0.31,2.0,9.87,11.718401088
1671151632.7344823,0,-144.0535888671875,194.951904296875,142.338623046875,1,-107.72454833984375,116.00048828125,-240.954345703125,2,-55.88653564453125,116.644775390625,-252.569091796875,3,131.7325439453125,196.169677734375,80.305419921875,0.0006235222060559895,0.0021583460978861174,15.5,15.5,0.0022222222222222222,-0.0011111111111111111,-0.0,-0.31,2.0,9.87,11.718401088
1671151632.744472,0,-143.87579345703125,194.951416015625,143.1435546875,1,-107.61279296875,116.0859375,-240.300537109375,2,-55.79931640625,116.6962890625,-251.890380859375,3,131.872314453125,196.14599609375,81.018310546875,0.0006235222060559895,0.0021583460978861174,15.5,15.5,0.0022222222222222222,-0.0011111111111111111,-0.0,-0.31,2.0,9.87,11.718401088
1671151632.7544878,0,-143.63519287109375,194.961669921875,143.8994140625,1,-107.58355712890625,116.15771484375,-239.5654296875,2,-55.69219970703125,116.686767578125,-251.099609375,3,132.107421875,196.197021484375,81.80517578125,0.022206983184917164,0.021919203705199015,15.5,15.5,0.0077777777777777776,-0.13555555555555557,0.10111111111111111,1.4,1.96,9.52,11.672291584
1671151632.7644162,0,-143.4547119140625,195.011474609375,144.5810546875,1,-107.42236328125,116.1669921875,-238.954345703125,2,-55.681884765625,116.696044921875,-250.492919921875,3,132.2452392578125,196.192626953125,82.44482421875,0.022206983184917164,0.021919203705199015,15.5,15.5,0.0077777777777777776,-0.13555555555555557,0.10111111111111111,1.4,1.96,9.52,11.672291584
1671151632.7743757,0,-143.20660400390625,195.130615234375,145.375,1,-107.3572998046875,116.08935546875,-238.095947265625,2,-55.51763916015625,116.72314453125,-249.656494140625,3,132.401611328125,196.147216796875,83.224365234375,0.022206983184917164,0.021919203705199015,15.5,15.5,0.0077777777777777776,-0.13555555555555557,0.10111111111111111,1.4,1.96,9.52,11.672291584
1671151632.7843792,0,-143.05377197265625,195.271484375,146.066650390625,1,-107.24224853515625,116.041748046875,-237.36279296875,2,-55.42987060546875,116.74072265625,-248.9794921875,3,132.5233154296875,196.056884765625,83.879150390625,0.022206983184917164,0.021919203705199015,15.5,15.5,0.0077777777777777776,-0.13555555555555557,0.10111111111111111,1.4,1.96,9.52,11.672291584
1671151632.7943928,0,-142.86297607421875,195.3974609375,146.8466796875,1,-107.2098388671875,115.959228515625,-236.53076171875,2,-55.36474609375,116.701171875,-248.15869140625,3,132.6624755859375,195.978271484375,84.682861328125,0.022206983184917164,0.021919203705199015,15.5,15.5,0.0077777777777777776,-0.13555555555555557,0.10111111111111111,1.4,1.96,9.52,11.672291584
1671151632.8043191,0,-142.65338134765625,195.4677734375,147.5546875,1,-107.0797119140625,116.059326171875,-235.8291015625,2,-55.30853271484375,116.68115234375,-247.43505859375,3,132.7904052734375,195.9638671875,85.381103515625,0.022206983184917164,0.021919203705199015,15.5,15.5,0.0077777777777777776,-0.13555555555555557,0.10111111111111111,1.4,1.96,9.52,11.672291584
1671151632.8144453,0,-142.36688232421875,195.503662109375,148.354736328125,1,-107.0325927734375,116.108154296875,-235.027587890625,2,-55.24444580078125,116.65966796875,-246.63818359375,3,132.9886474609375,195.959228515625,86.17529296875,0.022206983184917164,0.021919203705199015,15.5,15.5,0.0077777777777777776,-0.13555555555555557,0.10111111111111111,1.4,1.96,9.52,11.672291584
1671151632.8243186,0,-142.09759521484375,195.47509765625,149.166015625,1,-106.94879150390625,116.152587890625,-234.260009765625,2,-55.18707275390625,116.689697265625,-245.80419921875,3,133.201904296875,196.0439453125,86.849365234375,0.06043369074081129,0.055733292572081525,18.5,18.5,-0.01,0.03333333333333333,0.01888888888888889,-0.21,1.7,9.77,11.685465728
1671151632.834347,0,-141.8272705078125,195.47705078125,149.9296875,1,-106.953125,116.234130859375,-233.49462890625,2,-55.1707763671875,116.635009765625,-245.094482421875,3,133.391845703125,195.980712890625,87.495849609375,0.06043369074081129,0.055733292572081525,18.5,18.5,-0.01,0.03333333333333333,0.01888888888888889,-0.21,1.7,9.77,11.685465728
1671151632.8443623,0,-141.595947265625,195.550537109375,150.779052734375,1,-106.9552001953125,116.0830078125,-232.54248046875,2,-55.13995361328125,116.661376953125,-244.230712890625,3,133.5433349609375,196.03125,88.227783203125,0.06043369074081129,0.055733292572081525,18.5,18.5,-0.01,0.03333333333333333,0.01888888888888889,-0.21,1.7,9.77,11.685465728
1671151632.8543594,0,-141.34808349609375,195.611572265625,151.560302734375,1,-106.9521484375,115.906005859375,-231.64990234375,2,-55.08795166015625,116.624267578125,-243.376708984375,3,133.6614990234375,196.0244140625,88.989501953125,0.06043369074081129,0.055733292572081525,18.5,18.5,-0.01,0.03333333333333333,0.01888888888888889,-0.21,1.7,9.77,11.685465728
1671151632.8644094,0,-141.5699462890625,195.166748046875,152.65234375,1,-106.85284423828125,115.813720703125,-230.632568359375,2,-55.02227783203125,116.6513671875,-242.469482421875,3,133.895263671875,195.96484375,89.8740234375,0.10652637074233481,0.0948233385671301,20.0,20.0,-0.0033333333333333335,-0.0033333333333333335,0.03666666666666667,-0.19,1.82,9.81,11.6920528
1671151632.8743463,0,-141.37249755859375,194.9599609375,153.746826171875,1,-106.75396728515625,115.81201171875,-229.507568359375,2,-55.00390625,116.773193359375,-241.53271484375,3,134.080322265625,196.03173828125,90.76611328125,0.10652637074233481,0.0948233385671301,20.0,20.0,-0.0033333333333333335,-0.0033333333333333335,0.03666666666666667,-0.19,1.82,9.81,11.6920528
1671151632.884319,0,-140.49383544921875,195.587890625,154.654541015625,1,-106.66064453125,115.609375,-228.47900390625,2,-54.89837646484375,116.6376953125,-240.512939453125,3,134.3631591796875,195.961181640625,91.702880859375,0.10652637074233481,0.0948233385671301,20.0,20.0,-0.0033333333333333335,-0.0033333333333333335,0.03666666666666667,-0.19,1.82,9.81,11.6920528
1671151632.8943713,0,-140.22149658203125,195.64990234375,155.736083984375,1,-106.682861328125,115.502685546875,-227.253173828125,2,-54.85693359375,116.58740234375,-239.4072265625,3,134.5797119140625,195.96435546875,92.69873046875,0.10652637074233481,0.0948233385671301,20.0,20.0,-0.0033333333333333335,-0.0033333333333333335,0.03666666666666667,-0.19,1.82,9.81,11.6920528
1671151632.904357,0,-139.99737548828125,195.63037109375,156.834716796875,1,-106.4913330078125,115.404541015625,-226.21728515625,2,-54.7518310546875,116.54638671875,-238.31396484375,3,134.783935546875,196.034912109375,93.65478515625,0.10652637074233481,0.0948233385671301,20.0,20.0,-0.0033333333333333335,-0.0033333333333333335,0.03666666666666667,-0.19,1.82,9.81,11.6920528
1671151632.914524,0,-140.01007080078125,195.510009765625,158.02001953125,1,-106.4530029296875,115.380615234375,-225.0732421875,2,-54.58770751953125,116.522705078125,-237.229736328125,3,135.034423828125,195.96533203125,94.83642578125,0.10652637074233481,0.0948233385671301,20.0,20.0,-0.0033333333333333335,-0.0033333333333333335,0.03666666666666667,-0.19,1.82,9.81,11.6920528
1671151632.9243622,0,-139.6829833984375,195.459228515625,159.1376953125,1,-106.30828857421875,115.406494140625,-223.996337890625,2,-54.33441162109375,116.53173828125,-236.0673828125,3,135.24267578125,196.038330078125,95.849365234375,0.16206781032793757,0.15204349178442203,23.7,23.7,0.008888888888888889,-0.0033333333333333335,0.051111111111111114,0.33,1.84,9.71,11.685465728
1671151632.9344058,0,-139.41217041015625,195.490478515625,160.14501953125,1,-106.0914306640625,115.36962890625,-222.908935546875,2,-54.1673583984375,116.452880859375,-235.135986328125,3,135.510498046875,196.05517578125,96.67236328125,0.16206781032793757,0.15204349178442203,23.7,23.7,0.008888888888888889,-0.0033333333333333335,0.051111111111111114,0.33,1.84,9.71,11.685465728
1671151632.9444182,0,-139.205078125,195.441162109375,161.30126953125,1,-105.99285888671875,115.310791015625,-221.81396484375,2,-54.07763671875,116.359619140625,-233.967041015625,3,135.7816162109375,196.031494140625,97.71630859375,0.16206781032793757,0.15204349178442203,23.7,23.7,0.008888888888888889,-0.0033333333333333335,0.051111111111111114,0.33,1.84,9.71,11.685465728
1671151632.9544258,0,-138.877685546875,195.5341796875,162.399169921875,1,-105.80450439453125,115.23193359375,-220.630126953125,2,-53.963134765625,116.27978515625,-232.826416015625,3,136.07275390625,196.162109375,98.689453125,0.16206781032793757,0.15204349178442203,23.7,23.7,0.008888888888888889,-0.0033333333333333335,0.051111111111111114,0.33,1.84,9.71,11.685465728
1671151632.9644163,0,-138.444091796875,195.5009765625,163.78076171875,1,-105.73883056640625,115.236083984375,-219.3193359375,2,-53.8406982421875,116.310546875,-231.552001953125,3,136.4508056640625,196.115234375,99.91943359375,0.22859283338944966,0.20010266489735293,26.7,26.7,0.005555555555555556,0.017777777777777778,0.022222222222222223,1.47,1.68,9.62,11.662410976
1671151632.9743834,0,-138.2059326171875,195.413330078125,165.286865234375,1,-105.6158447265625,115.224853515625,-217.903564453125,2,-53.6873779296875,116.260009765625,-230.210693359375,3,136.68994140625,196.13818359375,101.16064453125,0.22859283338944966,0.20010266489735293,26.7,26.7,0.005555555555555556,0.017777777777777778,0.022222222222222223,1.47,1.68,9.62,11.662410976
1671151632.984406,0,-137.89898681640625,195.431640625,166.600830078125,1,-105.297119140625,115.1689453125,-216.626953125,2,-53.49456787109375,116.2109375,-228.891357421875,3,136.989013671875,196.0546875,102.4140625,0.22859283338944966,0.20010266489735293,26.7,26.7,0.005555555555555556,0.017777777777777778,0.022222222222222223,1.47,1.68,9.62,11.662410976
1671151632.9944112,0,-137.7110595703125,195.510009765625,168.148193359375,1,-105.10223388671875,115.100341796875,-215.166259765625,2,-53.2974853515625,116.147216796875,-227.481201171875,3,137.333740234375,196.064697265625,103.798095703125,0.22859283338944966,0.20010266489735293,26.7,26.7,0.005555555555555556,0.017777777777777778,0.022222222222222223,1.47,1.68,9.62,11.662410976
1671151633.004397,0,-137.47930908203125,195.720703125,169.47216796875,1,-104.92877197265625,115.097412109375,-213.710693359375,2,-53.06231689453125,116.163818359375,-226.0146484375,3,137.6761474609375,196.109619140625,105.1875,0.22859283338944966,0.20010266489735293,26.7,26.7,0.005555555555555556,0.017777777777777778,0.022222222222222223,1.47,1.68,9.62,11.662410976
1671151633.0144398,0,-136.839111328125,195.697265625,170.992919921875,1,-104.79022216796875,115.08349609375,-212.16259765625,2,-52.95233154296875,116.09228515625,-224.509033203125,3,138.001220703125,196.158935546875,106.51708984375,0.22859283338944966,0.20010266489735293,26.7,26.7,0.005555555555555556,0.017777777777777778,0.022222222222222223,1.47,1.68,9.62,11.662410976
1671151633.0243638,0,-136.2384033203125,195.681884765625,172.71484375,1,-104.58953857421875,114.963134765625,-210.46337890625,2,-52.755859375,116.031494140625,-222.845947265625,3,138.3626708984375,196.116943359375,108.06787109375,0.31046609536926306,0.2816881473974482,41.0,41.0,-0.006666666666666667,-0.0033333333333333335,0.04666666666666667,0.62,1.61,9.67,11.715107552000001
1671151633.0343883,0,-135.775146484375,195.8056640625,174.091552734375,1,-104.302001953125,114.84228515625,-208.81689453125,2,-52.5263671875,115.99365234375,-221.33154296875,3,138.6297607421875,196.17822265625,109.38525390625,0.31046609536926306,0.2816881473974482,41.0,41.0,-0.006666666666666667,-0.0033333333333333335,0.04666666666666667,0.62,1.61,9.67,11.715107552000001
1671151633.044398,0,-135.286865234375,195.980712890625,175.79345703125,1,-103.98870849609375,114.811767578125,-207.0625,2,-52.17822265625,115.908203125,-219.477294921875,3,139.0894775390625,196.22607421875,111.067138671875,0.31046609536926306,0.2816881473974482,41.0,41.0,-0.006666666666666667,-0.0033333333333333335,0.04666666666666667,0.62,1.61,9.67,11.715107552000001
1671151633.0543883,0,-134.84149169921875,196.0947265625,177.8779296875,1,-103.6602783203125,114.758056640625,-204.98291015625,2,-51.914306640625,115.85498046875,-217.416259765625,3,139.623046875,196.185791015625,113.069091796875,0.31046609536926306,0.2816881473974482,41.0,41.0,-0.006666666666666667,-0.0033333333333333335,0.04666666666666667,0.62,1.61,9.67,11.715107552000001
1671151633.0644996,0,-134.34759521484375,196.028564453125,179.90283203125,1,-103.41644287109375,114.68408203125,-202.919677734375,2,-51.6636962890625,115.86279296875,-215.406005859375,3,140.067138671875,196.177734375,115.0341796875,0.38965341553837374,0.34830909695219964,46.2,46.2,0.0044444444444444444,-0.006666666666666667,0.07333333333333333,-0.03,1.66,9.67,11.665704512
1671151633.0748332,0,-133.66802978515625,196.01171875,182.455322265625,1,-103.07965087890625,114.655517578125,-200.41650390625,2,-51.23162841796875,115.866455078125,-212.944580078125,3,140.647705078125,196.2490234375,117.2607421875,0.38965341553837374,0.34830909695219964,46.2,46.2,0.0044444444444444444,-0.006666666666666667,0.07333333333333333,-0.03,1.66,9.67,11.665704512
1671151633.0843735,0,-133.0328369140625,195.984375,184.896240234375,1,-102.65960693359375,114.62158203125,-198.025634765625,2,-50.8848876953125,115.834228515625,-210.666748046875,3,141.1776123046875,196.10595703125,119.5087890625,0.38965341553837374,0.34830909695219964,46.2,46.2,0.0044444444444444444,-0.006666666666666667,0.07333333333333333,-0.03,1.66,9.67,11.665704512
1671151633.0943513,0,-132.50958251953125,196.30859375,187.6806640625,1,-102.1885986328125,114.62109375,-195.2109375,2,-50.26220703125,116.0654296875,-208.047607421875,3,141.8843994140625,196.160400390625,122.33837890625,0.38965341553837374,0.34830909695219964,46.2,46.2,0.0044444444444444444,-0.006666666666666667,0.07333333333333333,-0.03,1.66,9.67,11.665704512
1671151633.1043663,0,-131.8870849609375,196.112548828125,190.457275390625,1,-101.7315673828125,114.615234375,-192.578857421875,2,-49.8499755859375,115.971923828125,-205.34423828125,3,142.572998046875,196.202880859375,124.876708984375,0.38965341553837374,0.34830909695219964,46.2,46.2,0.0044444444444444444,-0.006666666666666667,0.07333333333333333,-0.03,1.66,9.67,11.665704512
1671151633.1145065,0,-131.1839599609375,195.83154296875,193.66552734375,1,-101.33990478515625,114.5703125,-189.5615234375,2,-49.36871337890625,115.950927734375,-202.426513671875,3,143.2813720703125,196.089111328125,127.8720703125,0.5176193575197107,0.4818387755414208,51.4,51.4,-0.0011111111111111111,-0.04777777777777778,0.08444444444444445,1.03,1.17,10.92,11.649236832
1671151633.1243622,0,-130.4443359375,195.6572265625,196.84423828125,1,-100.81829833984375,114.591552734375,-186.509033203125,2,-48.9571533203125,115.969482421875,-199.3740234375,3,144.0269775390625,196.1962890625,130.6279296875,0.5176193575197107,0.4818387755414208,51.4,51.4,-0.0011111111111111111,-0.04777777777777778,0.08444444444444445,1.03,1.17,10.92,11.649236832
1671151633.1343853,0,-129.8753662109375,195.452880859375,199.845458984375,1,-100.23309326171875,114.46435546875,-183.59619140625,2,-48.49298095703125,116.204833984375,-196.827392578125,3,144.60693359375,196.052734375,133.310302734375,0.5176193575197107,0.4818387755414208,51.4,51.4,-0.0011111111111111111,-0.04777777777777778,0.08444444444444445,1.03,1.17,10.92,11.649236832
1671151633.1444008,0,-128.81671142578125,195.673583984375,202.8916015625,1,-99.68585205078125,114.4013671875,-180.3671875,2,-47.83770751953125,116.147705078125,-193.578369140625,3,145.31201171875,196.1044921875,136.316162109375,0.5176193575197107,0.4818387755414208,51.4,51.4,-0.0011111111111111111,-0.04777777777777778,0.08444444444444445,1.03,1.17,10.92,11.649236832
1671151633.1543522,0,-127.931396484375,195.854736328125,205.83251953125,1,-99.262939453125,114.427490234375,-177.458740234375,2,-47.429931640625,116.300537109375,-190.76123046875,3,146.0755615234375,196.14111328125,139.156494140625,0.5176193575197107,0.4818387755414208,51.4,51.4,-0.0011111111111111111,-0.04777777777777778,0.08444444444444445,1.03,1.17,10.92,11.649236832
1671151633.164438,0,-127.0299072265625,196.169921875,209.14794921875,1,-98.86224365234375,114.457275390625,-174.00634765625,2,-46.9666748046875,116.23876953125,-187.421142578125,3,146.8936767578125,196.20751953125,142.3388671875,0.5176193575197107,0.4818387755414208,51.4,51.4,-0.0011111111111111111,-0.04777777777777778,0.08444444444444445,1.03,1.17,10.92,11.649236832
1671151633.1744967,0,-125.994873046875,196.137451171875,212.645751953125,1,-98.31414794921875,114.351806640625,-170.478271484375,2,-46.51165771484375,116.179931640625,-183.97021484375,3,147.6976318359375,196.2080078125,145.586181640625,0.7012706288265094,0.6468803071597793,55.2,55.2,-0.0033333333333333335,-0.04,0.07,1.29,1.82,9.36,11.678878656
1671151633.1843882,0,-125.091552734375,196.2001953125,215.812744140625,1,-97.7745361328125,114.352294921875,-167.263916015625,2,-45.8150634765625,116.109619140625,-180.889892578125,3,148.4356689453125,196.2119140625,148.44970703125,0.7012706288265094,0.6468803071597793,55.2,55.2,-0.0033333333333333335,-0.04,0.07,1.29,1.82,9.36,11.678878656
1671151633.1945229,0,-124.29254150390625,196.360595703125,219.391845703125,1,-97.1566162109375,114.440185546875,-163.864013671875,2,-45.285400390625,116.103271484375,-177.360595703125,3,149.3642578125,196.30615234375,151.8564453125,0.7012706288265094,0.6468803071597793,55.2,55.2,-0.0033333333333333335,-0.04,0.07,1.29,1.82,9.36,11.678878656
1671151633.2043688,0,-123.67626953125,196.0888671875,222.67333984375,1,-96.62469482421875,114.29541015625,-160.540283203125,2,-44.74420166015625,116.051025390625,-174.1708984375,3,150.108642578125,196.207275390625,154.915283203125,0.7012706288265094,0.6468803071597793,55.2,55.2,-0.0033333333333333335,-0.04,0.07,1.29,1.82,9.36,11.678878656
1671151633.2144682,0,-122.91607666015625,195.86572265625,226.476318359375,1,-96.0712890625,114.314208984375,-156.896728515625,2,-44.03729248046875,116.01171875,-170.56298828125,3,151.0506591796875,196.30517578125,158.292236328125,0.8771998174275378,0.8090440439809562,57.4,57.4,-0.012222222222222223,0.0044444444444444444,0.10222222222222223,1.18,1.66,9.49,11.639356224
1671151633.2246165,0,-121.94732666015625,195.799072265625,230.27294921875,1,-95.447998046875,114.28173828125,-153.20751953125,2,-43.61480712890625,116.05517578125,-166.90625,3,152.0289306640625,196.253662109375,161.7900390625,0.8771998174275378,0.8090440439809562,57.4,57.4,-0.012222222222222223,0.0044444444444444444,0.10222222222222223,1.18,1.66,9.49,11.639356224
1671151633.2344446,0,-121.05731201171875,196.059814453125,233.777099609375,1,-94.81512451171875,114.252685546875,-149.67529296875,2,-43.15057373046875,116.0654296875,-163.4755859375,3,152.819091796875,196.423095703125,164.8232421875,0.8771998174275378,0.8090440439809562,57.4,57.4,-0.012222222222222223,0.0044444444444444444,0.10222222222222223,1.18,1.66,9.49,11.639356224
1671151633.2444334,0,-119.859130859375,196.341064453125,237.576416015625,1,-94.2044677734375,114.234375,-145.94873046875,2,-42.4078369140625,116.03076171875,-159.801025390625,3,154.095458984375,196.5888671875,168.33935546875,0.8771998174275378,0.8090440439809562,57.4,57.4,-0.012222222222222223,0.0044444444444444444,0.10222222222222223,1.18,1.66,9.49,11.639356224
1671151633.2544382,0,-118.8433837890625,196.53271484375,241.044189453125,1,-93.4869384765625,114.176025390625,-142.37548828125,2,-41.56048583984375,115.889404296875,-156.216064453125,3,154.8941650390625,196.552978515625,171.7001953125,0.8771998174275378,0.8090440439809562,57.4,57.4,-0.012222222222222223,0.0044444444444444444,0.10222222222222223,1.18,1.66,9.49,11.639356224
1671151633.2644274,0,-117.45263671875,196.442138671875,245.0380859375,1,-92.88970947265625,114.305419921875,-138.3798828125,2,-40.9619140625,115.774169921875,-152.22021484375,3,155.784423828125,196.34130859375,175.587890625,1.0745206140209485,0.9876112111460676,58.2,58.2,-0.021111111111111112,0.26555555555555554,0.08444444444444445,-0.09,2.28,7.89,11.662410976
1671151633.2743516,0,-116.34716796875,196.603271484375,248.985595703125,1,-92.20220947265625,114.281005859375,-134.3916015625,2,-40.18609619140625,115.94921875,-148.301513671875,3,156.9034423828125,196.4384765625,179.27001953125,1.0745206140209485,0.9876112111460676,58.2,58.2,-0.021111111111111112,0.26555555555555554,0.08444444444444445,-0.09,2.28,7.89,11.662410976
1671151633.284371,0,-115.3892822265625,196.60595703125,252.60693359375,1,-91.43389892578125,114.188720703125,-130.720703125,2,-39.61602783203125,115.838134765625,-144.731201171875,3,157.7738037109375,196.33837890625,182.65625,1.0745206140209485,0.9876112111460676,58.2,58.2,-0.021111111111111112,0.26555555555555554,0.08444444444444445,-0.09,2.28,7.89,11.662410976
1671151633.2943516,0,-114.4874267578125,196.2529296875,256.830810546875,1,-90.79718017578125,114.206298828125,-126.792236328125,2,-38.87646484375,115.86328125,-140.834228515625,3,158.850830078125,196.275390625,186.437744140625,1.0745206140209485,0.9876112111460676,58.2,58.2,-0.021111111111111112,0.26555555555555554,0.08444444444444445,-0.09,2.28,7.89,11.662410976
1671151633.3044345,0,-113.43011474609375,196.4033203125,260.883056640625,1,-90.07305908203125,114.230224609375,-122.639892578125,2,-38.28399658203125,115.86572265625,-136.703857421875,3,159.7139892578125,196.434814453125,190.21923828125,1.0745206140209485,0.9876112111460676,58.2,58.2,-0.021111111111111112,0.26555555555555554,0.08444444444444445,-0.09,2.28,7.89,11.662410976
1671151633.314352,0,-112.49639892578125,196.274169921875,264.39013671875,1,-89.4571533203125,114.073486328125,-119.0478515625,2,-37.75311279296875,115.859130859375,-133.235595703125,3,160.6024169921875,196.1943359375,193.691650390625,1.0745206140209485,0.9876112111460676,58.2,58.2,-0.021111111111111112,0.26555555555555554,0.08444444444444445,-0.09,2.28,7.89,11.662410976
1671151633.324364,0,-111.121826171875,196.498779296875,268.52294921875,1,-88.7174072265625,114.158935546875,-115.073486328125,2,-36.99176025390625,115.8603515625,-129.14794921875,3,161.790283203125,196.324951171875,197.51904296875,1.0745206140209485,0.9876112111460676,58.2,58.2,-0.021111111111111112,0.26555555555555554,0.08444444444444445,-0.09,2.28,7.89,11.662410976
1671151633.334352,0,-110.0040283203125,196.47021484375,272.23974609375,1,-88.2047119140625,114.290283203125,-111.3232421875,2,-36.2867431640625,115.857666015625,-125.568359375,3,162.7415771484375,196.221435546875,200.9609375,1.3070464336332128,1.2380752849940966,60.9,67.4,-0.017777777777777778,-0.0011111111111111111,0.09,0.22,1.31,8.59,11.675585120000001
1671151633.3443732,0,-109.08770751953125,196.5205078125,276.2744140625,1,-87.47216796875,114.28759765625,-107.140380859375,2,-35.527587890625,115.907958984375,-121.43994140625,3,163.8707275390625,196.513427734375,204.725341796875,1.3070464336332128,1.2380752849940966,60.9,67.4,-0.017777777777777778,-0.0011111111111111111,0.09,0.22,1.31,8.59,11.675585120000001
1671151633.354547,0,-108.414794921875,196.2197265625,280.1708984375,1,-86.69671630859375,114.285888671875,-103.402587890625,2,-34.74505615234375,115.818115234375,-117.6611328125,3,164.7335205078125,196.569091796875,208.296875,1.3070464336332128,1.2380752849940966,60.9,67.4,-0.017777777777777778,-0.0011111111111111111,0.09,0.22,1.31,8.59,11.675585120000001
1671151633.3646283,0,-107.613037109375,196.004638671875,284.356201171875,1,-85.5924072265625,114.472412109375,-99.069091796875,2,-33.6959228515625,115.954345703125,-113.377685546875,3,165.602783203125,196.442138671875,212.40185546875,1.3070464336332128,1.2380752849940966,60.9,67.4,-0.017777777777777778,-0.0011111111111111111,0.09,0.22,1.31,8.59,11.675585120000001
1671151633.374444,0,-106.431884765625,196.05908203125,288.599853515625,1,-84.3826904296875,114.461669921875,-94.81298828125,2,-32.384765625,115.87353515625,-109.087158203125,3,166.6236572265625,196.38623046875,216.62451171875,1.3070464336332128,1.2380752849940966,60.9,67.4,-0.017777777777777778,-0.0011111111111111111,0.09,0.22,1.31,8.59,11.675585120000001
1671151633.3845181,0,-105.2037353515625,196.017822265625,292.46484375,1,-83.43914794921875,114.472900390625,-91.128662109375,2,-31.54541015625,115.968994140625,-105.4443359375,3,167.8341064453125,196.1123046875,220.549560546875,1.3070464336332128,1.2380752849940966,60.9,67.4,-0.017777777777777778,-0.0011111111111111111,0.09,0.22,1.31,8.59,11.675585120000001
1671151633.3944395,0,-103.84368896484375,196.421142578125,296.650146484375,1,-82.12103271484375,114.571044921875,-86.7392578125,2,-30.241455078125,115.97412109375,-100.967529296875,3,169.013427734375,196.26513671875,224.85009765625,1.3070464336332128,1.2380752849940966,60.9,67.4,-0.017777777777777778,-0.0011111111111111111,0.09,0.22,1.31,8.59,11.675585120000001
1671151633.4043493,0,-102.62060546875,196.587890625,300.474609375,1,-81.020751953125,114.5966796875,-82.889892578125,2,-28.98193359375,116.027587890625,-97.176025390625,3,170.07958984375,196.16015625,228.9375,1.3070464336332128,1.2380752849940966,60.9,67.4,-0.017777777777777778,-0.0011111111111111111,0.09,0.22,1.31,8.59,11.675585120000001
1671151633.4144156,0,-101.79913330078125,196.403564453125,304.92626953125,1,-79.69036865234375,114.477294921875,-78.411376953125,2,-27.72601318359375,116.009765625,-92.66650390625,3,171.276123046875,196.27392578125,233.530029296875,1.5724750404265857,1.4638862500796042,59.8,71.5,0.011111111111111112,-0.0077777777777777776,0.11888888888888889,0.79,1.31,9.46,11.662410976
1671151633.424361,0,-100.86505126953125,196.105712890625,309.535400390625,1,-78.28936767578125,114.580810546875,-74.045166015625,2,-26.29864501953125,115.979248046875,-88.146240234375,3,172.294189453125,196.199462890625,238.156982421875,1.5724750404265857,1.4638862500796042,59.8,71.5,0.011111111111111112,-0.0077777777777777776,0.11888888888888889,0.79,1.31,9.46,11.662410976
1671151633.434384,0,-99.96331787109375,196.010009765625,313.57666015625,1,-77.02813720703125,114.50634765625,-70.06689453125,2,-25.13232421875,116.039306640625,-84.23876953125,3,173.3399658203125,196.05908203125,242.367431640625,1.5724750404265857,1.4638862500796042,59.8,71.5,0.011111111111111112,-0.0077777777777777776,0.11888888888888889,0.79,1.31,9.46,11.662410976
1671151633.444391,0,-98.8126220703125,195.94677734375,317.95556640625,1,-75.61236572265625,114.45068359375,-65.670166015625,2,-23.80419921875,116.10009765625,-79.89208984375,3,174.5528564453125,196.111328125,246.948486328125,1.5724750404265857,1.4638862500796042,59.8,71.5,0.011111111111111112,-0.0077777777777777776,0.11888888888888889,0.79,1.31,9.46,11.662410976
1671151633.4543965,0,-97.65863037109375,196.009765625,322.192138671875,1,-74.1942138671875,114.34912109375,-61.23193359375,2,-22.354248046875,115.974365234375,-75.322265625,3,175.4432373046875,195.823486328125,251.8828125,1.9247171236016,1.804233448092935,57.2,80.1,-0.03888888888888889,0.015555555555555555,-0.04555555555555556,1.85,2.59,9.09,11.655823904
1671151633.4643974,0,-96.8017578125,196.093505859375,326.134765625,1,-72.8792724609375,114.4169921875,-57.14013671875,2,-20.9801025390625,116.05859375,-71.138671875,3,176.326171875,195.89892578125,256.218994140625,1.9247171236016,1.804233448092935,57.2,80.1,-0.03888888888888889,0.015555555555555555,-0.04555555555555556,1.85,2.59,9.09,11.655823904
1671151633.4743474,0,-95.91644287109375,195.68017578125,330.827880859375,1,-71.29241943359375,114.37158203125,-52.777099609375,2,-19.49224853515625,116.074462890625,-66.64306640625,3,177.4979248046875,195.915283203125,260.94140625,1.9247171236016,1.804233448092935,57.2,80.1,-0.03888888888888889,0.015555555555555555,-0.04555555555555556,1.85,2.59,9.09,11.655823904
1671151633.4843402,0,-95.09259033203125,195.583251953125,335.01708984375,1,-69.698486328125,114.5576171875,-48.670654296875,2,-17.839599609375,116.1845703125,-62.509521484375,3,178.496826171875,195.756591796875,265.625244140625,1.9247171236016,1.804233448092935,57.2,80.1,-0.03888888888888889,0.015555555555555555,-0.04555555555555556,1.85,2.59,9.09,11.655823904
1671151633.4943683,0,-93.93048095703125,195.546630859375,339.452880859375,1,-67.97015380859375,114.404052734375,-44.223388671875,2,-16.09747314453125,115.902099609375,-57.855712890625,3,179.6748046875,195.578125,270.830322265625,2.1076489462091033,2.025152162023234,57.2,92.1,0.016666666666666666,0.03333333333333333,-0.08555555555555555,1.38,1.5,10.65,11.632769152
1671151633.504343,0,-92.83148193359375,195.893798828125,343.332275390625,1,-66.2178955078125,114.25048828125,-40.170654296875,2,-14.13580322265625,116.00537109375,-53.56640625,3,180.7694091796875,195.560302734375,275.584716796875,2.1076489462091033,2.025152162023234,57.2,92.1,0.016666666666666666,0.03333333333333333,-0.08555555555555555,1.38,1.5,10.65,11.632769152
1671151633.514409,0,-91.8922119140625,196.03515625,347.53466796875,1,-63.9765625,114.056396484375,-35.574462890625,2,-11.95263671875,115.748779296875,-48.8544921875,3,181.9305419921875,195.768798828125,280.7265625,2.1076489462091033,2.025152162023234,57.2,92.1,0.016666666666666666,0.03333333333333333,-0.08555555555555555,1.38,1.5,10.65,11.632769152
1671151633.5243804,0,-91.12591552734375,195.865966796875,352.056640625,1,-61.632080078125,114.0068359375,-31.1796875,2,-9.57373046875,115.103759765625,-43.9228515625,3,183.0284423828125,195.62939453125,286.312255859375,2.1076489462091033,2.025152162023234,57.2,92.1,0.016666666666666666,0.03333333333333333,-0.08555555555555555,1.38,1.5,10.65,11.632769152
1671151633.5344303,0,-90.91290283203125,195.559814453125,356.245849609375,1,-59.014892578125,113.883544921875,-26.945068359375,2,-7.1248779296875,114.901123046875,-39.42578125,3,183.92236328125,195.6162109375,291.675048828125,2.307847537599696,2.253121473206628,55.7,99.6,0.052222222222222225,0.10111111111111111,-0.2544444444444444,0.0,1.51,8.9,11.613007936
1671151633.5444512,0,-89.92962646484375,195.5537109375,360.587646484375,1,-56.39630126953125,113.901611328125,-22.520751953125,2,-4.3502197265625,114.719970703125,-34.557861328125,3,184.9398193359375,195.54541015625,297.57666015625,2.307847537599696,2.253121473206628,55.7,99.6,0.052222222222222225,0.10111111111111111,-0.2544444444444444,0.0,1.51,8.9,11.613007936
1671151633.5543797,0,-89.07403564453125,195.781494140625,364.44482421875,1,-53.4041748046875,113.87841796875,-18.231201171875,2,-1.3677978515625,114.7216796875,-29.952880859375,3,186.0416259765625,195.677001953125,303.16357421875,2.307847537599696,2.253121473206628,55.7,99.6,0.052222222222222225,0.10111111111111111,-0.2544444444444444,0.0,1.51,8.9,11.613007936
1671151633.564429,0,-88.4466552734375,195.671875,368.90283203125,1,-50.39208984375,114.28564453125,-13.892333984375,2,1.7891845703125,114.8427734375,-25.04931640625,3,187.089111328125,195.528076171875,309.58203125,2.5096768793753577,2.533994245411541,55.7,100.0,-0.0033333333333333335,-0.0,-0.42333333333333334,3.93,1.01,10.59,11.632769152
1671151633.5743947,0,-87.99755859375,195.4931640625,373.449462890625,1,-47.0623779296875,114.41015625,-9.24365234375,2,5.4375,115.119873046875,-20.101318359375,3,188.27978515625,195.470947265625,316.150146484375,2.5096768793753577,2.533994245411541,55.7,100.0,-0.0033333333333333335,-0.0,-0.42333333333333334,3.93,1.01,10.59,11.632769152
1671151633.5843503,0,-87.445556640625,195.568359375,377.440673828125,1,-43.953125,114.580078125,-5.083984375,2,8.244140625,115.452880859375,-15.9580078125,3,189.1478271484375,195.758544921875,321.741943359375,2.5096768793753577,2.533994245411541,55.7,100.0,-0.0033333333333333335,-0.0,-0.42333333333333334,3.93,1.01,10.59,11.632769152
1671151633.5943727,0,-87.01519775390625,195.482177734375,381.96630859375,1,-40.75482177734375,114.246337890625,-0.167724609375,2,11.8109130859375,115.4384765625,-10.7626953125,3,190.26171875,195.998291015625,328.242919921875,2.5096768793753577,2.533994245411541,55.7,100.0,-0.0033333333333333335,-0.0,-0.42333333333333334,3.93,1.01,10.59,11.632769152
1671151633.6044726,0,-86.60302734375,195.252685546875,386.43505859375,1,-37.13262939453125,114.362060546875,4.693115234375,2,15.4072265625,115.471923828125,-5.50341796875,3,190.896484375,195.694091796875,334.655029296875,2.5096768793753577,2.533994245411541,55.7,100.0,-0.0033333333333333335,-0.0,-0.42333333333333334,3.93,1.01,10.59,11.632769152
1671151633.6145911,0,-86.12841796875,195.132080078125,390.50634765625,1,-34.337890625,114.57958984375,8.6591796875,2,18.3228759765625,115.5009765625,-0.901611328125,3,191.73095703125,195.720458984375,340.658935546875,2.6824404936994863,2.823548365254619,55.3,100.0,0.02666666666666667,0.04,-0.7155555555555555,-1.83,1.68,11.14,11.655823904
1671151633.6243823,0,-85.67633056640625,195.542724609375,394.763916015625,1,-30.95294189453125,114.774169921875,13.403564453125,2,21.8834228515625,115.55810546875,4.408447265625,3,192.5286865234375,195.788818359375,347.22119140625,2.6824404936994863,2.823548365254619,55.3,100.0,0.02666666666666667,0.04,-0.7155555555555555,-1.83,1.68,11.14,11.655823904
1671151633.634436,0,-85.51361083984375,195.116943359375,399.051513671875,1,-27.87469482421875,114.516357421875,18.0322265625,2,24.7967529296875,115.430908203125,9.066650390625,3,193.1754150390625,195.582275390625,353.215576171875,2.6824404936994863,2.823548365254619,55.3,100.0,0.02666666666666667,0.04,-0.7155555555555555,-1.83,1.68,11.14,11.655823904
1671151633.6444316,0,-84.8863525390625,195.278564453125,403.4482421875,1,-24.56695556640625,114.531005859375,23.0068359375,2,27.9984130859375,115.84423828125,14.39501953125,3,193.7156982421875,195.9443359375,359.862548828125,2.6824404936994863,2.823548365254619,55.3,100.0,0.02666666666666667,0.04,-0.7155555555555555,-1.83,1.68,11.14,11.655823904
1671151633.6544793,0,-84.273681640625,195.32568359375,407.3740234375,1,-21.61383056640625,114.766357421875,27.234130859375,2,30.8355712890625,116.08837890625,19.315185546875,3,194.2371826171875,196.34912109375,365.85986328125,2.6824404936994863,2.823548365254619,55.3,100.0,0.02666666666666667,0.04,-0.7155555555555555,-1.83,1.68,11.14,11.655823904
1671151633.6644475,0,-84.19573974609375,195.010009765625,411.802490234375,1,-18.24365234375,114.996337890625,32.031494140625,2,34.0938720703125,116.27099609375,24.577880859375,3,194.9129638671875,196.438232421875,372.64404296875,2.6824404936994863,2.823548365254619,55.3,100.0,0.02666666666666667,0.04,-0.7155555555555555,-1.83,1.68,11.14,11.655823904
1671151633.6744356,0,-84.316650390625,195.11865234375,416.250732421875,1,-14.9471435546875,114.51806640625,37.42919921875,2,37.5166015625,116.3056640625,30.04052734375,3,195.6434326171875,196.506103515625,379.422607421875,2.9125681509807664,3.229317431657209,54.9,100.0,-0.19111111111111112,0.0077777777777777776,-0.7744444444444445,0.36,1.39,11.97,11.652530368
1671151633.6843848,0,-84.3382568359375,195.302734375,420.290283203125,1,-11.99395751953125,114.24853515625,42.11767578125,2,40.5765380859375,116.296875,34.873779296875,3,195.7950439453125,196.289306640625,385.3896484375,2.9125681509807664,3.229317431657209,54.9,100.0,-0.19111111111111112,0.0077777777777777776,-0.7744444444444445,0.36,1.39,11.97,11.652530368
1671151633.6943839,0,-84.3963623046875,195.45458984375,424.72314453125,1,-8.8170166015625,114.3583984375,47.232666015625,2,43.4718017578125,116.717041015625,40.291748046875,3,196.0025634765625,196.139892578125,392.212158203125,2.9125681509807664,3.229317431657209,54.9,100.0,-0.19111111111111112,0.0077777777777777776,-0.7744444444444445,0.36,1.39,11.97,11.652530368
1671151633.7043808,0,-84.21820068359375,195.243896484375,428.69677734375,1,-5.9359130859375,114.37060546875,51.621826171875,2,46.255615234375,116.859130859375,45.184326171875,3,196.2652587890625,196.083251953125,398.270263671875,2.9125681509807664,3.229317431657209,54.9,100.0,-0.19111111111111112,0.0077777777777777776,-0.7744444444444445,0.36,1.39,11.97,11.652530368
1671151633.7143857,0,-84.13623046875,195.052001953125,433.211669921875,1,-2.6611328125,114.429443359375,56.71044921875,2,49.582275390625,116.898193359375,50.66796875,3,196.689697265625,196.13134765625,405.166015625,3.1255249659721964,3.578681720035042,54.9,100.0,0.043333333333333335,0.06444444444444444,-0.8366666666666667,0.94,1.86,10.81,11.672291584
1671151633.7243586,0,-84.06982421875,195.083740234375,437.564208984375,1,0.4207763671875,114.366455078125,61.829345703125,2,52.7894287109375,116.85595703125,56.32470703125,3,196.6551513671875,196.166259765625,411.903076171875,3.1255249659721964,3.578681720035042,54.9,100.0,0.043333333333333335,0.06444444444444444,-0.8366666666666667,0.94,1.86,10.81,11.672291584
1671151633.7343457,0,-84.02484130859375,195.13623046875,441.50390625,1,3.4364013671875,114.453857421875,66.28125,2,55.9735107421875,116.45849609375,61.311279296875,3,197.16943359375,195.857666015625,417.9638671875,3.1255249659721964,3.578681720035042,54.9,100.0,0.043333333333333335,0.06444444444444444,-0.8366666666666667,0.94,1.86,10.81,11.672291584
1671151633.744342,0,-84.067626953125,195.18798828125,445.6982421875,1,6.5853271484375,114.48828125,71.4130859375,2,59.686279296875,116.129150390625,66.889892578125,3,198.056396484375,195.760986328125,424.593505859375,3.1255249659721964,3.578681720035042,54.9,100.0,0.043333333333333335,0.06444444444444444,-0.8366666666666667,0.94,1.86,10.81,11.672291584
1671151633.7543476,0,-83.98297119140625,195.12158203125,450.086181640625,1,9.5458984375,114.74072265625,76.16259765625,2,62.96875,116.32763671875,72.1142578125,3,198.2781982421875,195.671630859375,431.342041015625,3.1255249659721964,3.578681720035042,54.9,100.0,0.043333333333333335,0.06444444444444444,-0.8366666666666667,0.94,1.86,10.81,11.672291584
1671151633.764342,0,-84.3369140625,194.94384765625,454.05322265625,1,12.18115234375,114.753173828125,80.7080078125,2,65.593994140625,116.346435546875,76.995361328125,3,198.173095703125,195.67236328125,437.461181640625,3.1255249659721964,3.578681720035042,54.9,100.0,0.043333333333333335,0.06444444444444444,-0.8366666666666667,0.94,1.86,10.81,11.672291584
1671151633.774397,0,-84.57940673828125,194.87646484375,458.291748046875,1,15.12109375,114.56689453125,85.782958984375,2,68.6092529296875,116.0927734375,82.672119140625,3,198.18017578125,195.541015625,444.25537109375,3.3495133276861555,3.993611766541993,59.4,100.0,0.05555555555555555,-0.03777777777777778,-0.84,-0.67,1.67,8.33,11.665704512
1671151633.7843952,0,-84.73455810546875,194.884033203125,462.240966796875,1,17.94970703125,114.8818359375,90.40869140625,2,71.378173828125,116.091064453125,87.753662109375,3,198.0926513671875,195.826904296875,450.14013671875,3.3495133276861555,3.993611766541993,59.4,100.0,0.05555555555555555,-0.03777777777777778,-0.84,-0.67,1.67,8.33,11.665704512
1671151633.7943964,0,-84.89593505859375,194.76953125,466.63134765625,1,20.8963623046875,115.021728515625,95.363525390625,2,74.28515625,116.032958984375,93.3935546875,3,197.923095703125,195.787841796875,456.98974609375,3.3495133276861555,3.993611766541993,59.4,100.0,0.05555555555555555,-0.03777777777777778,-0.84,-0.67,1.67,8.33,11.665704512
1671151633.8043327,0,-84.86431884765625,194.791259765625,471.309814453125,1,23.5035400390625,114.99951171875,100.836181640625,2,76.9903564453125,116.020263671875,99.328369140625,3,197.930419921875,195.87939453125,463.7392578125,3.3495133276861555,3.993611766541993,59.4,100.0,0.05555555555555555,-0.03777777777777778,-0.84,-0.67,1.67,8.33,11.665704512
1671151633.8143883,0,-84.8646240234375,195.178466796875,475.189453125,1,25.718505859375,114.978271484375,105.6357421875,2,79.1812744140625,116.015625,104.4970703125,3,197.7410888671875,196.031005859375,469.78271484375,3.5582014137284337,4.356645580206438,68.0,97.7,0.03,0.03777777777777778,-0.8633333333333333,-0.83,1.57,10.95,11.662410976
1671151633.8243246,0,-85.1175537109375,195.681396484375,479.7021484375,1,27.667724609375,115.1513671875,111.298828125,2,81.60888671875,115.98828125,110.422607421875,3,197.072998046875,196.345458984375,476.426513671875,3.5582014137284337,4.356645580206438,68.0,97.7,0.03,0.03777777777777778,-0.8633333333333333,-0.83,1.57,10.95,11.662410976
1671151633.834389,0,-85.6805419921875,195.963623046875,483.944580078125,1,29.616455078125,115.5458984375,116.266845703125,2,83.61962890625,116.0048828125,115.721435546875,3,196.709228515625,196.36376953125,482.474609375,3.5582014137284337,4.356645580206438,68.0,97.7,0.03,0.03777777777777778,-0.8633333333333333,-0.83,1.57,10.95,11.662410976
1671151633.844356,0,-86.2554931640625,195.614013671875,488.909423828125,1,31.151123046875,115.6015625,121.86962890625,2,85.52978515625,115.96240234375,121.611572265625,3,196.491943359375,196.218994140625,489.0859375,3.5582014137284337,4.356645580206438,68.0,97.7,0.03,0.03777777777777778,-0.8633333333333333,-0.83,1.57,10.95,11.662410976
1671151633.8543522,0,-86.2955322265625,195.04150390625,493.59326171875,1,32.9195556640625,115.643798828125,127.1328125,2,87.161865234375,116.084716796875,127.17578125,3,195.9990234375,196.585693359375,495.240966796875,3.5582014137284337,4.356645580206438,68.0,97.7,0.03,0.03777777777777778,-0.8633333333333333,-0.83,1.57,10.95,11.662410976
1671151633.8644214,0,-86.09124755859375,195.025390625,498.7626953125,1,34.4583740234375,115.663330078125,132.896484375,2,89.152587890625,116.182373046875,133.078857421875,3,195.809814453125,196.534423828125,501.986328125,3.5582014137284337,4.356645580206438,68.0,97.7,0.03,0.03777777777777778,-0.8633333333333333,-0.83,1.57,10.95,11.662410976
1671151633.874351,0,-85.86114501953125,195.127685546875,504.0361328125,1,36.2628173828125,115.7216796875,138.847412109375,2,91.0531005859375,116.367919921875,139.177490234375,3,195.7581787109375,196.281982421875,508.8173828125,3.5582014137284337,4.356645580206438,68.0,97.7,0.03,0.03777777777777778,-0.8633333333333333,-0.83,1.57,10.95,11.662410976
1671151633.8843687,0,-86.51434326171875,194.801513671875,508.9306640625,1,37.7506103515625,115.736572265625,144.14794921875,2,92.4130859375,116.165771484375,144.947509765625,3,196.0655517578125,196.429931640625,514.80712890625,3.5582014137284337,4.356645580206438,68.0,97.7,0.03,0.03777777777777778,-0.8633333333333333,-0.83,1.57,10.95,11.662410976
1671151633.89437,0,-86.87060546875,194.75634765625,514.129150390625,1,39.290771484375,115.629150390625,149.915771484375,2,93.8218994140625,116.233642578125,151.23193359375,3,195.6407470703125,196.672607421875,521.404541015625,3.79816153656675,4.764477066213675,82.9,82.9,0.04666666666666667,-0.07888888888888888,-0.7366666666666667,1.83,1.74,11.12,11.642649760000001
1671151633.9044209,0,-87.50775146484375,195.1875,518.68212890625,1,40.660400390625,115.739990234375,155.296630859375,2,95.4559326171875,116.381103515625,156.75341796875,3,194.9083251953125,196.303466796875,527.593017578125,3.79816153656675,4.764477066213675,82.9,82.9,0.04666666666666667,-0.07888888888888888,-0.7366666666666667,1.83,1.74,11.12,11.642649760000001
1671151633.914491,0,-88.1864013671875,194.883544921875,523.92626953125,1,42.013916015625,115.1787109375,161.468505859375,2,96.77880859375,116.168212890625,162.67236328125,3,194.472900390625,196.39794921875,534.025634765625,3.79816153656675,4.764477066213675,82.9,82.9,0.04666666666666667,-0.07888888888888888,-0.7366666666666667,1.83,1.74,11.12,11.642649760000001
1671151633.9245496,0,-88.36004638671875,194.516357421875,529.522216796875,1,43.009521484375,115.203369140625,167.645263671875,2,97.8790283203125,116.462890625,168.949951171875,3,194.0045166015625,196.4892578125,540.80517578125,4.143400985735289,5.216482702357648,87.4,87.4,-0.01,0.0044444444444444444,-0.54,1.57,3.7,8.38,11.619595008000001
1671151633.9344964,0,-87.97467041015625,194.4833984375,534.8193359375,1,43.6688232421875,115.054931640625,173.182861328125,2,98.5364990234375,116.227294921875,174.53076171875,3,193.57763671875,195.979736328125,546.91845703125,4.143400985735289,5.216482702357648,87.4,87.4,-0.01,0.0044444444444444444,-0.54,1.57,3.7,8.38,11.619595008000001
1671151633.944447,0,-88.0133056640625,194.817626953125,540.642578125,1,44.1463623046875,115.102783203125,179.4169921875,2,99.0640869140625,116.353759765625,180.9248046875,3,193.2032470703125,196.07177734375,553.51513671875,4.143400985735289,5.216482702357648,87.4,87.4,-0.01,0.0044444444444444444,-0.54,1.57,3.7,8.38,11.619595008000001
1671151633.9545333,0,-88.03375244140625,194.856689453125,547.012939453125,1,44.3790283203125,115.087158203125,185.57470703125,2,99.03515625,116.419189453125,187.320068359375,3,193.680419921875,196.404296875,559.677978515625,4.143400985735289,5.216482702357648,87.4,87.4,-0.01,0.0044444444444444444,-0.54,1.57,3.7,8.38,11.619595008000001
1671151633.9644313,0,-88.49835205078125,194.47216796875,552.635009765625,1,44.537353515625,114.7177734375,191.236328125,2,98.806884765625,116.428955078125,192.93701171875,3,193.7650146484375,196.056640625,565.378173828125,4.143400985735289,5.216482702357648,87.4,87.4,-0.01,0.0044444444444444444,-0.54,1.57,3.7,8.38,11.619595008000001
1671151633.974431,0,-89.7440185546875,194.600341796875,558.9755859375,1,44.421630859375,114.53076171875,197.5859375,2,98.56103515625,116.438232421875,199.269287109375,3,193.3193359375,195.9111328125,571.72265625,4.143400985735289,5.216482702357648,87.4,87.4,-0.01,0.0044444444444444444,-0.54,1.57,3.7,8.38,11.619595008000001
1671151633.9843516,0,-89.6201171875,194.2802734375,564.996337890625,1,43.90234375,114.623291015625,203.310546875,2,98.0048828125,116.4033203125,204.822998046875,3,192.8004150390625,195.7646484375,577.44140625,4.339091031943631,5.453325214165684,90.0,90.0,0.015555555555555555,-0.0033333333333333335,-0.20333333333333334,-0.45,1.62,8.23,11.642649760000001
1671151633.9943845,0,-89.34942626953125,194.404541015625,571.14794921875,1,42.8900146484375,115.02392578125,209.44091796875,2,97.402587890625,116.4326171875,211.0986328125,3,192.1961669921875,195.980224609375,583.468994140625,4.339091031943631,5.453325214165684,90.0,90.0,0.015555555555555555,-0.0033333333333333335,-0.20333333333333334,-0.45,1.62,8.23,11.642649760000001
1671151634.004382,0,-89.53692626953125,194.376708984375,576.8935546875,1,42.2498779296875,115.21923828125,215.28955078125,2,97.0614013671875,116.37841796875,216.6669921875,3,192.0054931640625,196.099609375,589.200439453125,4.339091031943631,5.453325214165684,90.0,90.0,0.015555555555555555,-0.0033333333333333335,-0.20333333333333334,-0.45,1.62,8.23,11.642649760000001
