t,x,y,z,q0,q1,q2,q3,wx,wy,wz,ax,ay,az,dutyR,dutyL,Vbatt
0.00000000000000000,39.42214820609792980,16.41155204779471077,32.43076997689001217,0.10438609749014452,-0.64908081232952131,0.60209034785033722,0.45308371714496731,0.00000000000000000,0.00000000000000000,0.00000000000000000,0.00000000000000000,0.00000000000000000,0.00000000000000000,0.00000000000000000,0.00000000000000000,0.00000000000000000
0.01010107994079590,39.42214820609792980,16.41155204779471077,32.43076997689001217,0.71760428679964594,-0.00176288757685382,0.00330326757255833,0.69644100124670050,0.00000000000000000,0.00000000000000000,0.00000000000000000,0.00000000000000000,0.00000000000000000,0.00000000000000000,0.00000000000000000,0.00000000000000000,0.00000000000000000
0.02009534835815430,39.42530098084905177,16.34508059770234567,32.40311080410503308,0.71762891620092040,-0.00193176588975193,0.00335909856797033,0.69641490748665791,0.00000000000000000,0.00000000000000000,0.00000000000000000,0.00000000000000000,0.00000000000000000,0.00000000000000000,0.00000000000000000,0.00000000000000000,0.00000000000000000
0.03016543388366699,39.48940799535800750,16.40275470377838118,32.41459183473904915,0.71764209126429124,-0.00181128324838058,0.00327738741877257,0.69640204395917460,0.00000000000000000,0.00000000000000000,0.00000000000000000,0.00000000000000000,0.00000000000000000,0.00000000000000000,0.00000000000000000,0.00000000000000000,0.00000000000000000
0.04009342193603516,39.44666818577692879,16.39291809833032687,32.43148141714868871,0.71760294955383097,-0.00191578340087947,0.00325959065782963,0.69644218111365586,0.00000000000000000,0.00000000000000000,0.00000000000000000,0.00000000000000000,0.00000000000000000,0.00000000000000000,0.00000000000000000,0.00000000000000000,0.00000000000000000
0.05008506774902344,39.42136280779847368,16.40782646168777248,32.43061966752288328,0.71758512395863538,-0.00175695257987218,0.00334963428328912,0.69646053939980712,0.00000000000000000,0.00000000000000000,0.00000000000000000,0.00000000000000000,0.00000000000000000,0.00000000000000000,0.00000000000000000,0.00000000000000000,0.00000000000000000
0.06008481979370117,39.44561506269732121,16.39306392549827152,32.39611300497929847,0.71764083234164100,-0.00185351444581365,0.00328399354049286,0.69640319903531578,0.00000000000000000,0.00000000000000000,0.00000000000000000,0.00000000000000000,0.00000000000000000,0.00000000000000000,0.00000000000000000,0.00000000000000000,0.00000000000000000
0.07012152671813965,39.48875202936371664,16.37256969664600348,32.41734400059315391,0.71761697383632039,-0.00193853850275540,0.00329108545843613,0.69642751933491298,0.00000000000000000,-0.00222222222222222,-0.00000000000000000,-0.14999999999999999,1.82000000000000006,9.69999999999999929,0.00000000000000000,0.00000000000000000,11.73486876800000012
0.08019018173217773,39.46403315210414320,16.42540949979452947,32.44399294638400733,0.71758262925679239,-0.00180652380854649,0.00322294061069140,0.69646358075240233,0.00000000000000000,-0.00222222222222222,-0.00000000000000000,-0.14999999999999999,1.82000000000000006,9.69999999999999929,0.00000000000000000,0.00000000000000000,11.73486876800000012
0.09018015861511230,39.44949589407286794,16.39864817077724624,32.45235439990639037,0.71763659877735153,-0.00186662296573139,0.00327875934385663,0.69640755133121801,0.00000000000000000,-0.00222222222222222,-0.00000000000000000,-0.14999999999999999,1.82000000000000006,9.69999999999999929,0.00000000000000000,0.00000000000000000,11.73486876800000012
0.10009288787841797,39.42155450723196708,16.40958246799334930,32.43086192556602754,0.71760831841363015,-0.00178387332430512,0.00328380075012574,0.69643688572056406,0.00000000000000000,-0.00222222222222222,-0.00000000000000000,-0.14999999999999999,1.82000000000000006,9.69999999999999929,0.00000000000000000,0.00000000000000000,11.73486876800000012
0.11018586158752441,39.41854277275580642,16.38171367129285727,32.39758431253778070,0.71763142208355224,-0.00175349873475582,0.00339706479948274,0.69641261277440547,0.00000000000000000,-0.00222222222222222,-0.00000000000000000,-0.14999999999999999,1.82000000000000006,9.69999999999999929,0.00000000000000000,0.00000000000000000,11.73486876800000012
0.12008404731750488,39.51512622029542143,16.34624603557585587,32.44928280757849137,0.71761528685986187,-0.00199341093123608,0.00327201153047005,0.69642919260930036,0.00111111111111111,0.00111111111111111,-0.00000000000000000,-0.14000000000000001,1.83000000000000007,9.71000000000000085,0.00000000000000000,0.00000000000000000,11.74145584000000042
0.13023352622985840,39.53420143832860134,16.39608017675880447,32.46284842478393529,0.71760365040738405,-0.00191479886542556,0.00314240900202699,0.69644200026489322,0.00111111111111111,0.00111111111111111,-0.00000000000000000,-0.14000000000000001,1.83000000000000007,9.71000000000000085,0.00000000000000000,0.00000000000000000,11.74145584000000042
0.14017271995544434,39.41974160713461117,16.38472121847513208,32.46850223190079276,0.71755400056029572,-0.00178924826647953,0.00337808221827138,0.69649238576676686,0.00111111111111111,0.00111111111111111,-0.00000000000000000,-0.14000000000000001,1.83000000000000007,9.71000000000000085,0.00000000000000000,0.00000000000000000,11.74145584000000042
0.15018391609191895,39.40025073093391228,16.42295064773803048,32.44304192510492868,0.71757777764594022,-0.00171572654861720,0.00329658708450017,0.69646846434330301,0.00111111111111111,0.00111111111111111,-0.00000000000000000,-0.14000000000000001,1.83000000000000007,9.71000000000000085,0.00000000000000000,0.00000000000000000,11.74145584000000042
0.16011047363281250,39.40625048740584901,16.38993779787270100,32.43453453329215819,0.71758270066545993,-0.00175719342677760,0.00334099347515001,0.69646307708271560,0.00111111111111111,-0.00111111111111111,-0.00222222222222222,-0.13000000000000000,1.83000000000000007,9.73000000000000043,0.00000000000000000,0.00000000000000000,11.75792352000000029
0.17015790939331055,39.45225928029705642,16.34847260984838968,32.42579219199449625,0.71754684465942542,-0.00188351448430713,0.00335320441874448,0.69649962965719925,0.00111111111111111,-0.00111111111111111,-0.00222222222222222,-0.13000000000000000,1.83000000000000007,9.73000000000000043,0.00000000000000000,0.00000000000000000,11.75792352000000029
0.18017196655273438,39.47321380326427942,16.42756900212555138,32.43921820782634313,0.71758113061471118,-0.00173916757062902,0.00324390071237089,0.69646519897985015,0.00111111111111111,-0.00111111111111111,-0.00222222222222222,-0.13000000000000000,1.83000000000000007,9.73000000000000043,0.00000000000000000,0.00000000000000000,11.75792352000000029
0.19004821777343750,39.44341653922877100,16.38188636348596106,32.47614517249905219,0.71760388936792641,-0.00186571225024667,0.00330386963708639,0.69644114003068913,0.00111111111111111,-0.00111111111111111,-0.00222222222222222,-0.13000000000000000,1.83000000000000007,9.73000000000000043,0.00000000000000000,0.00000000000000000,11.75792352000000029
0.20007014274597168,39.41766163095356745,16.39771189267572282,32.42887579132903397,0.71761869898046626,-0.00178617058251852,0.00327511024546720,0.69642622446395031,0.00111111111111111,-0.00111111111111111,-0.00222222222222222,-0.13000000000000000,1.83000000000000007,9.73000000000000043,0.00000000000000000,0.00000000000000000,11.75792352000000029
0.21007275581359863,39.40142113644187560,16.36841997091344680,32.41027604686099295,0.71757978154671309,-0.00176814259001154,0.00333429052459595,0.69646608911981567,0.00000000000000000,0.00111111111111111,0.00111111111111111,-0.14000000000000001,1.82000000000000006,9.60999999999999943,0.00000000000000000,0.00000000000000000,11.76121705599999956
0.22009277343750000,39.49753536292397627,16.33240862782864156,32.44152467687998609,0.71759329205088029,-0.00196570625349203,0.00330789538161783,0.69645176504238193,0.00000000000000000,0.00111111111111111,0.00111111111111111,-0.14000000000000001,1.82000000000000006,9.60999999999999943,0.00000000000000000,0.00000000000000000,11.76121705599999956
0.23013472557067871,39.50624338299409999,16.39252111233545151,32.46694587411383282,0.71759891600591519,-0.00181893427084363,0.00320193715978547,0.69644686432180769,0.00000000000000000,0.00111111111111111,0.00111111111111111,-0.14000000000000001,1.82000000000000006,9.60999999999999943,0.00000000000000000,0.00000000000000000,11.76121705599999956
0.24012660980224609,39.43045734708314143,16.37875445502318783,32.45459900590332580,0.71759546483027103,-0.00181538462680663,0.00332196865307695,0.69644986736875159,0.00000000000000000,0.00111111111111111,0.00111111111111111,-0.14000000000000001,1.82000000000000006,9.60999999999999943,0.00000000000000000,0.00000000000000000,11.76121705599999956
0.25010037422180176,39.40730047882635034,16.39610412636023185,32.43263983589363164,0.71760007417834870,-0.00178352221891266,0.00336239823319579,0.69644500634712303,0.00000000000000000,0.00111111111111111,0.00111111111111111,-0.14000000000000001,1.82000000000000006,9.60999999999999943,0.00000000000000000,0.00000000000000000,11.76121705599999956
0.26007270812988281,39.39333528105592563,16.40596340244524853,32.43056680877880638,0.71759743141053889,-0.00170269166650812,0.00335985522233001,0.69644794396061704,-0.28222222222222221,0.00111111111111111,-0.00111111111111111,-0.13000000000000000,1.80000000000000004,9.68999999999999950,0.00000000000000000,0.00000000000000000,11.74474937599999969
0.27012181282043457,39.42126692545070199,16.37050470119483592,32.41691841713511479,0.71761298933123208,-0.00188944849073755,0.00330317401115395,0.69643170273110488,-0.28222222222222221,0.00111111111111111,-0.00111111111111111,-0.13000000000000000,1.80000000000000004,9.68999999999999950,0.00000000000000000,0.00000000000000000,11.74474937599999969
0.28013110160827637,39.49204753032135073,16.41344781601435088,32.45900052595160190,0.71760331887176343,-0.00179079505606866,0.00324193370596500,0.69644221559519481,-0.28222222222222221,0.00111111111111111,-0.00111111111111111,-0.13000000000000000,1.80000000000000004,9.68999999999999950,0.00000000000000000,0.00000000000000000,11.74474937599999969
0.29004859924316406,39.43660295946070704,16.36258689888222051,32.44624902096980890,0.71757912040673943,-0.00185288313713440,0.00335740018776488,0.69646643899354521,-0.28222222222222221,0.00111111111111111,-0.00111111111111111,-0.13000000000000000,1.80000000000000004,9.68999999999999950,0.00000000000000000,0.00000000000000000,11.74474937599999969
0.30008316040039062,39.44086332188197019,16.38952150655412865,32.43870247939301521,0.71762569165476842,-0.00178832598215114,0.00330999698581696,0.69641884845770108,-0.28222222222222221,0.00111111111111111,-0.00111111111111111,-0.13000000000000000,1.80000000000000004,9.68999999999999950,0.00000000000000000,0.00000000000000000,11.74474937599999969
0.31009078025817871,39.43395051153531483,16.37289527264113431,32.43095152055271768,0.71760511178013242,-0.00176062706037472,0.00338868076756033,0.69643974655531593,-0.00222222222222222,0.00222222222222222,0.00222222222222222,-0.16000000000000000,1.82000000000000006,9.69999999999999929,0.00000000000000000,0.00000000000000000,11.75792352000000029
0.32007932662963867,39.49329633914636162,16.35347082635574978,32.43962300756798101,0.71758086393211384,-0.00195612953639135,0.00326221368749642,0.69646481263415982,-0.00222222222222222,0.00222222222222222,0.00222222222222222,-0.16000000000000000,1.82000000000000006,9.69999999999999929,0.00000000000000000,0.00000000000000000,11.75792352000000029
0.33012533187866211,39.47881463354116249,16.40423983889829174,32.45094484890218922,0.71761348757702859,-0.00181174746587414,0.00322603085479052,0.69643175742033581,-0.00222222222222222,0.00222222222222222,0.00222222222222222,-0.16000000000000000,1.82000000000000006,9.69999999999999929,0.00000000000000000,0.00000000000000000,11.75792352000000029
0.34014129638671875,39.49884185520981106,16.35628290837471965,32.43544362508871615,0.71764682375967304,-0.00191588706641192,0.00329684848955127,0.69639679530741572,-0.00222222222222222,0.00222222222222222,0.00222222222222222,-0.16000000000000000,1.82000000000000006,9.69999999999999929,0.00000000000000000,0.00000000000000000,11.75792352000000029
0.35017776489257812,39.42810804836676652,16.39415642192458833,32.43265325892330964,0.71762003771574789,-0.00172551808601084,0.00333294635601164,0.69642472351631179,-0.00222222222222222,0.00222222222222222,0.00222222222222222,-0.16000000000000000,1.82000000000000006,9.69999999999999929,0.00000000000000000,0.00000000000000000,11.75792352000000029
0.36024117469787598,39.41011692388089216,16.40176096731514477,32.41407369950260176,0.71759742860278619,-0.00176191259649669,0.00330248649971700,0.69644807395066410,-0.00222222222222222,0.00222222222222222,0.00222222222222222,-0.16000000000000000,1.82000000000000006,9.69999999999999929,0.00000000000000000,0.00000000000000000,11.75792352000000029
0.37020206451416016,39.47919874954816066,16.37456165482335280,32.43042455954982728,0.71762704900373719,-0.00187400713463217,0.00331110503196751,0.69641721921482824,0.28333333333333333,-0.00000000000000000,-0.28222222222222221,-0.14000000000000001,1.83000000000000007,9.73000000000000043,0.00000000000000000,0.00000000000000000,11.76780412799999986
0.38019514083862305,39.45250166066547592,16.41943059422309048,32.45079314252023295,0.71762981996023167,-0.00178120855390911,0.00328557335843763,0.69641472831039319,0.28333333333333333,-0.00000000000000000,-0.28222222222222221,-0.14000000000000001,1.83000000000000007,9.73000000000000043,0.00000000000000000,0.00000000000000000,11.76780412799999986
0.39015603065490723,39.46178574458378563,16.38004430304262016,32.46803260528634638,0.71759570475498446,-0.00181369152475851,0.00333912256838299,0.69644954253752178,0.28333333333333333,-0.00000000000000000,-0.28222222222222221,-0.14000000000000001,1.83000000000000007,9.73000000000000043,0.00000000000000000,0.00000000000000000,11.76780412799999986
0.40007281303405762,39.43370082925066100,16.39667775079499989,32.43063829105711449,0.71761844919110385,-0.00180534740443724,0.00329818452854826,0.69642632351176925,0.28333333333333333,-0.00000000000000000,-0.28222222222222221,-0.14000000000000001,1.83000000000000007,9.73000000000000043,0.00000000000000000,0.00000000000000000,11.76780412799999986
0.41008472442626953,39.45425610211377432,16.38375864929014014,32.40414756677542840,0.71764451237452753,-0.00185632459536308,0.00327945776210684,0.69639942064486948,-0.00111111111111111,0.00222222222222222,-0.00000000000000000,-0.13000000000000000,1.82000000000000006,9.59999999999999964,0.00000000000000000,0.00000000000000000,11.76780412799999986
0.42017388343811035,39.53919997312888057,16.37090242474496904,32.45692279171390737,0.71763335151284235,-0.00190172466807558,0.00326054601474252,0.69641088811090368,-0.00111111111111111,0.00222222222222222,-0.00000000000000000,-0.13000000000000000,1.82000000000000006,9.59999999999999964,0.00000000000000000,0.00000000000000000,11.76780412799999986
0.43021512031555176,39.52227236875160088,16.41254824018703573,32.44091055726075012,0.71762305473446353,-0.00187025088848376,0.00317551410281625,0.69642197666743255,-0.00111111111111111,0.00222222222222222,-0.00000000000000000,-0.13000000000000000,1.82000000000000006,9.59999999999999964,0.00000000000000000,0.00000000000000000,11.76780412799999986
0.44005155563354492,39.45369376231737846,16.38521629466073648,32.44056957979109512,0.71758679834529104,-0.00186291184733661,0.00328731744047849,0.69645883578575474,-0.00111111111111111,0.00222222222222222,-0.00000000000000000,-0.13000000000000000,1.82000000000000006,9.59999999999999964,0.00000000000000000,0.00000000000000000,11.76780412799999986
0.45012784004211426,39.38358491225364588,16.40405105273036312,32.42482302490461166,0.71757569606432048,-0.00171201924024261,0.00334373069356809,0.69647039339298278,-0.00111111111111111,0.00222222222222222,-0.00000000000000000,-0.13000000000000000,1.82000000000000006,9.59999999999999964,0.00000000000000000,0.00000000000000000,11.76780412799999986
0.46014499664306641,39.45335297572311362,16.35901755243275346,32.38582833093585833,0.71761449828482704,-0.00186412728126496,0.00338779027395012,0.69642980964197321,0.00000000000000000,0.00222222222222222,-0.00111111111111111,-0.14999999999999999,1.82000000000000006,9.72000000000000064,0.00000000000000000,0.00000000000000000,11.73816230400000116
0.47013258934020996,39.48935274047563837,16.36619480803103599,32.41278236486530773,0.71764177826915010,-0.00191887563796803,0.00336616128513249,0.69640165490697981,0.00000000000000000,0.00222222222222222,-0.00111111111111111,-0.14999999999999999,1.82000000000000006,9.72000000000000064,0.00000000000000000,0.00000000000000000,11.73816230400000116
0.48015093803405762,39.44447337907713802,16.40707922886339531,32.43148886203863412,0.71759000308629828,-0.00179642392930745,0.00332097436148260,0.69645554880477678,0.00000000000000000,0.00222222222222222,-0.00111111111111111,-0.14999999999999999,1.82000000000000006,9.72000000000000064,0.00000000000000000,0.00000000000000000,11.73816230400000116
0.49013137817382812,39.45759989044491078,16.35791632697144493,32.45252285514320789,0.71755649691580492,-0.00184240555012851,0.00339816342268412,0.69648957763993846,0.00000000000000000,0.00222222222222222,-0.00111111111111111,-0.14999999999999999,1.82000000000000006,9.72000000000000064,0.00000000000000000,0.00000000000000000,11.73816230400000116
0.50014519691467285,39.43082198839909580,16.36644128002159349,32.43267596848112788,0.71759046069037924,-0.00180597002807696,0.00334240013501224,0.69645495012941372,0.00000000000000000,0.00222222222222222,-0.00111111111111111,-0.14999999999999999,1.82000000000000006,9.72000000000000064,0.00000000000000000,0.00000000000000000,11.73816230400000116
0.51023793220520020,39.43116646697871630,16.39096925655737991,32.43242676865194341,0.71759881380267665,-0.00177323106955377,0.00335845870369000,0.69644635029246926,0.00111111111111111,-0.00111111111111111,-0.00111111111111111,-0.14000000000000001,1.82000000000000006,9.75000000000000000,0.00000000000000000,0.00000000000000000,11.76451059200000060
0.52020120620727539,39.46364455056337306,16.36312722613876858,32.44021097029434486,0.71759885805170243,-0.00187014578292129,0.00341438121576476,0.69644577928117013,0.00111111111111111,-0.00111111111111111,-0.00111111111111111,-0.14000000000000001,1.82000000000000006,9.75000000000000000,0.00000000000000000,0.00000000000000000,11.76451059200000060
0.53024363517761230,39.46562501927790123,16.38118712576270397,32.42723906509695553,0.71762998307716319,-0.00181877793653927,0.00328897096290636,0.69641444708269296,0.00111111111111111,-0.00111111111111111,-0.00111111111111111,-0.14000000000000001,1.82000000000000006,9.75000000000000000,0.00000000000000000,0.00000000000000000,11.76451059200000060
0.54011487960815430,39.43301297336179090,16.37453194353168229,32.47322413751272308,0.71758471505305899,-0.00180722835165041,0.00344508244196390,0.69646036646378739,0.00111111111111111,-0.00111111111111111,-0.00111111111111111,-0.14000000000000001,1.82000000000000006,9.75000000000000000,0.00000000000000000,0.00000000000000000,11.76451059200000060
0.55011224746704102,39.40075842416464269,16.42584278213455917,32.43612773994316711,0.71764541253073366,-0.00162824035645460,0.00343332978582018,0.69639832204961294,0.00111111111111111,-0.00111111111111111,-0.00111111111111111,-0.14000000000000001,1.82000000000000006,9.75000000000000000,0.00000000000000000,0.00000000000000000,11.76451059200000060
0.56011247634887695,39.41104548638549687,16.40238017170834794,32.40440993745544773,0.71765435587192805,-0.00170601490796808,0.00342648067704315,0.69638895327349348,0.00111111111111111,-0.00111111111111111,0.00111111111111111,-0.16000000000000000,1.84000000000000008,9.68999999999999950,0.00000000000000000,0.00000000000000000,11.75792352000000029
0.57017922401428223,39.41190799831611002,16.36298967778227720,32.38815622184487353,0.71766165110131008,-0.00180373009430828,0.00347753323274266,0.69638093588129146,0.00111111111111111,-0.00111111111111111,0.00111111111111111,-0.16000000000000000,1.84000000000000008,9.68999999999999950,0.00000000000000000,0.00000000000000000,11.75792352000000029
0.58017158508300781,39.54745285589265791,16.40246505335633742,32.43125493362746425,0.71767255215122283,-0.00186350006507372,0.00322109790710571,0.69637077752051779,0.00111111111111111,-0.00111111111111111,0.00111111111111111,-0.16000000000000000,1.84000000000000008,9.68999999999999950,0.00000000000000000,0.00000000000000000,11.75792352000000029
0.59018659591674805,39.41362647143446196,16.37979949434298632,32.44957180656869866,0.71761371108340866,-0.00175906161122655,0.00339755361441729,0.69643084652877296,0.00111111111111111,-0.00111111111111111,0.00111111111111111,-0.16000000000000000,1.84000000000000008,9.68999999999999950,0.00000000000000000,0.00000000000000000,11.75792352000000029
0.60014629364013672,39.38254269201861035,16.39178575039945329,32.43093331264720547,0.71759272444604449,-0.00171181198986351,0.00337564247342211,0.69645269513421104,0.00111111111111111,-0.00111111111111111,0.00111111111111111,-0.16000000000000000,1.84000000000000008,9.68999999999999950,0.00000000000000000,0.00000000000000000,11.75792352000000029
0.61019182205200195,39.43146352730079940,16.40130460159220149,32.41603262879095126,0.71763481243288030,-0.00185399900539732,0.00330154881305548,0.69640931817972374,0.00111111111111111,-0.00111111111111111,0.00111111111111111,-0.16000000000000000,1.84000000000000008,9.68999999999999950,0.00000000000000000,0.00000000000000000,11.75792352000000029
0.62018108367919922,39.46087524544520164,16.35673852318830868,32.42021249668471938,0.71757523750506680,-0.00186143641390854,0.00336518564143779,0.69647037919758126,0.00000000000000000,0.28222222222222221,-0.00111111111111111,-0.16000000000000000,1.81000000000000005,9.65000000000000036,0.00000000000000000,0.00000000000000000,11.76451059200000060
0.63020110130310059,39.50645851466196490,16.38530997435531944,32.43467427614761078,0.71761894212119737,-0.00185938990970787,0.00328963211637645,0.69642571384071983,0.00000000000000000,0.28222222222222221,-0.00111111111111111,-0.16000000000000000,1.81000000000000005,9.65000000000000036,0.00000000000000000,0.00000000000000000,11.76451059200000060
0.64019012451171875,39.44104188487610685,16.36221725759283530,32.44314084336332371,0.71757564122488315,-0.00190718530746999,0.00334771992072858,0.69646992364080806,0.00000000000000000,0.28222222222222221,-0.00111111111111111,-0.16000000000000000,1.81000000000000005,9.65000000000000036,0.00000000000000000,0.00000000000000000,11.76451059200000060
0.65014815330505371,39.39085318728107410,16.42270517054205925,32.44067779937299889,0.71763828529263118,-0.00163462221783794,0.00338161982861919,0.69640590472783326,0.00000000000000000,-0.00111111111111111,-0.00333333333333333,-0.13000000000000000,1.82000000000000006,9.65000000000000036,0.00000000000000000,0.00000000000000000,11.73816230400000116
0.66020178794860840,39.38181788947391482,16.41285152743272491,32.42490904299726395,0.71760135135220482,-0.00165776908972718,0.00339348802242548,0.69644385026947864,0.00000000000000000,-0.00111111111111111,-0.00333333333333333,-0.13000000000000000,1.82000000000000006,9.65000000000000036,0.00000000000000000,0.00000000000000000,11.73816230400000116
0.67019057273864746,39.45332979489315761,16.37840227432652895,32.43142258211347695,0.71755986771035896,-0.00184007300424378,0.00335205783242072,0.69648633446114350,0.00000000000000000,-0.00111111111111111,-0.00333333333333333,-0.13000000000000000,1.82000000000000006,9.65000000000000036,0.00000000000000000,0.00000000000000000,11.73816230400000116
0.68019604682922363,39.46635160460817104,16.36424885311684463,32.42287585542806738,0.71758153081120590,-0.00185578456778399,0.00331955733522551,0.69646412918497269,0.00000000000000000,-0.00111111111111111,-0.00333333333333333,-0.13000000000000000,1.82000000000000006,9.65000000000000036,0.00000000000000000,0.00000000000000000,11.73816230400000116
0.69018888473510742,39.43599006746628532,16.38547558410247618,32.40500931176354271,0.71761868724859956,-0.00193263731371711,0.00330261135685496,0.69642571562431255,0.00000000000000000,-0.00111111111111111,-0.00333333333333333,-0.13000000000000000,1.82000000000000006,9.65000000000000036,0.00000000000000000,0.00000000000000000,11.73816230400000116
0.70014023780822754,39.39634038406327932,16.39969127134820326,32.40628225277980334,0.71763433406203447,-0.00178472685371146,0.00337114133333041,0.69640965870061666,0.00000000000000000,-0.00111111111111111,-0.00333333333333333,-0.13000000000000000,1.82000000000000006,9.65000000000000036,0.00000000000000000,0.00000000000000000,11.73816230400000116
0.71014261245727539,39.39703762947414845,16.40848124862438340,32.45336960252107872,0.71760940763796333,-0.00170062280987013,0.00336696824775507,0.69643557453390337,-0.00111111111111111,-0.00111111111111111,-0.00000000000000000,-0.14999999999999999,1.82000000000000006,9.64000000000000057,0.00000000000000000,0.00000000000000000,11.75133644799999999
0.72012948989868164,39.48893409299940771,16.36638962273527298,32.44886741498520166,0.71759175968290312,-0.00181676640510072,0.00335379475670041,0.69645352885584078,-0.00111111111111111,-0.00111111111111111,-0.00000000000000000,-0.14999999999999999,1.82000000000000006,9.64000000000000057,0.00000000000000000,0.00000000000000000,11.75133644799999999
0.73018288612365723,39.49219625933699973,16.38139239899514976,32.39650922080382145,0.71763498695997530,-0.00180601703254124,0.00334663884831451,0.69640904919583935,-0.00111111111111111,-0.00111111111111111,-0.00000000000000000,-0.14999999999999999,1.82000000000000006,9.64000000000000057,0.00000000000000000,0.00000000000000000,11.75133644799999999
0.74018311500549316,39.46040344520130105,16.39582481449525986,32.47605488216100156,0.71760008499235517,-0.00180088302316808,0.00336426558457214,0.69644494151108449,-0.00111111111111111,-0.00111111111111111,-0.00000000000000000,-0.14999999999999999,1.82000000000000006,9.64000000000000057,0.00000000000000000,0.00000000000000000,11.75133644799999999
0.75018334388732910,39.40576388436360133,16.40202330636159900,32.43714674947650423,0.71759764419966232,-0.00172262948867001,0.00332800726195299,0.69644782859479415,-0.00111111111111111,-0.00111111111111111,-0.00000000000000000,-0.14999999999999999,1.82000000000000006,9.64000000000000057,0.00000000000000000,0.00000000000000000,11.75133644799999999
0.76025080680847168,39.42974349849011162,16.41234262671055433,32.44484662232266459,0.71762734778378245,-0.00171494743137207,0.00332900317055579,0.69641723586224669,0.00111111111111111,0.00222222222222222,-0.00111111111111111,-0.14000000000000001,1.81000000000000005,9.69999999999999929,0.00000000000000000,0.00000000000000000,11.73486876800000012
0.77018475532531738,39.50072898019688949,16.35277603565603854,32.42294230356205276,0.71761836221738617,-0.00195609804115012,0.00328767900791201,0.69642605569839966,0.00111111111111111,0.00222222222222222,-0.00111111111111111,-0.14000000000000001,1.81000000000000005,9.69999999999999929,0.00000000000000000,0.00000000000000000,11.73486876800000012
0.78017473220825195,39.50530112335966493,16.39930820069900363,32.45215361449287172,0.71761748279684689,-0.00188069292395634,0.00322241390053337,0.69642747463544008,0.00111111111111111,0.00222222222222222,-0.00111111111111111,-0.14000000000000001,1.81000000000000005,9.69999999999999929,0.00000000000000000,0.00000000000000000,11.73486876800000012
0.79007625579833984,39.44869341021870923,16.38189371731848354,32.46781829970117172,0.71759820504949023,-0.00189654068021643,0.00325236907761508,0.69644715617093389,0.00111111111111111,0.00222222222222222,-0.00111111111111111,-0.14000000000000001,1.81000000000000005,9.69999999999999929,0.00000000000000000,0.00000000000000000,11.73486876800000012
0.80008006095886230,39.43894943948455989,16.37915186258945610,32.44121908816065769,0.71762092596603633,-0.00185079826011293,0.00328363723688633,0.69642372079643122,0.00111111111111111,0.00222222222222222,-0.00111111111111111,-0.14000000000000001,1.81000000000000005,9.69999999999999929,0.00000000000000000,0.00000000000000000,11.73486876800000012
0.81008672714233398,39.41521509512717358,16.39598455796246768,32.42997449394285780,0.71758625329670067,-0.00177905466027401,0.00333441183027753,0.69645939274437652,0.00111111111111111,0.00222222222222222,-0.00111111111111111,-0.14000000000000001,1.81000000000000005,9.69999999999999929,0.00000000000000000,0.00000000000000000,11.73486876800000012
0.82007646560668945,39.49142761899254594,16.37972759543444567,32.43679730439678366,0.71761365083180073,-0.00183325293148170,0.00335166145399565,0.69643093964085256,-0.00111111111111111,-0.00000000000000000,0.00222222222222222,-0.14999999999999999,1.82000000000000006,9.73000000000000043,0.00000000000000000,0.00000000000000000,11.76121705599999956
0.83018255233764648,39.48104575649713865,16.40810277642524895,32.45711536256241914,0.71759489757936745,-0.00184035539023163,0.00323716998018449,0.69645078561992746,-0.00111111111111111,-0.00000000000000000,0.00222222222222222,-0.14999999999999999,1.82000000000000006,9.73000000000000043,0.00000000000000000,0.00000000000000000,11.76121705599999956
0.84014368057250977,39.42140308459249098,16.37607004002817135,32.48786889008363232,0.71756266294452598,-0.00174504396499507,0.00331307770873549,0.69648388573291242,-0.00111111111111111,-0.00000000000000000,0.00222222222222222,-0.14999999999999999,1.82000000000000006,9.73000000000000043,0.00000000000000000,0.00000000000000000,11.76121705599999956
0.85011124610900879,39.42761528071248023,16.36687300025837644,32.40166613778939109,0.71762927394679998,-0.00186989647018776,0.00336044336584351,0.69641470122489835,-0.00111111111111111,-0.00000000000000000,0.00222222222222222,-0.14999999999999999,1.82000000000000006,9.73000000000000043,0.00000000000000000,0.00000000000000000,11.76121705599999956
0.86012339591979980,39.42869118251528704,16.40312176079421747,32.42282503731687626,0.71760630085224786,-0.00177425348243439,0.00324602018531193,0.69643916629860081,0.00111111111111111,-0.00111111111111111,-0.00222222222222222,-0.14999999999999999,1.84000000000000008,9.72000000000000064,0.00000000000000000,0.00000000000000000,11.74474937599999969
0.87022924423217773,39.43145178126616912,16.33312822524079522,32.43042754523604998,0.71758356493491171,-0.00189235834161274,0.00337372248787355,0.69646167468984599,0.00111111111111111,-0.00111111111111111,-0.00222222222222222,-0.14999999999999999,1.84000000000000008,9.72000000000000064,0.00000000000000000,0.00000000000000000,11.74474937599999969
0.88020873069763184,39.48449856534437430,16.42133266744322384,32.46103164472025782,0.71760098689572838,-0.00186041035905240,0.00308699745053668,0.69644513992583246,0.00111111111111111,-0.00111111111111111,-0.00222222222222222,-0.14999999999999999,1.84000000000000008,9.72000000000000064,0.00000000000000000,0.00000000000000000,11.74474937599999969
0.89019346237182617,39.43612475011487817,16.38770070333547224,32.43533290191980001,0.71760425662627403,-0.00192662268245991,0.00324858667128651,0.69644085583883664,0.00111111111111111,-0.00111111111111111,-0.00222222222222222,-0.14999999999999999,1.84000000000000008,9.72000000000000064,0.00000000000000000,0.00000000000000000,11.74474937599999969
0.90014648437500000,39.44371638574130401,16.37402786487787765,32.41902725189202528,0.71761035731551037,-0.00185059460721670,0.00325262434094593,0.69643475703615076,0.00111111111111111,-0.00111111111111111,-0.00222222222222222,-0.14999999999999999,1.84000000000000008,9.72000000000000064,0.00000000000000000,0.00000000000000000,11.74474937599999969
0.91009616851806641,39.42891518774835191,16.38570292129605477,32.44678225330558519,0.71758622622248436,-0.00168979071173410,0.00338953644069521,0.69645937683819092,0.00111111111111111,-0.00111111111111111,-0.00222222222222222,-0.14999999999999999,1.84000000000000008,9.72000000000000064,0.00000000000000000,0.00000000000000000,11.74474937599999969
0.92011070251464844,39.45635291617897877,16.37966073876943440,32.42343255688263781,0.71756808977071995,-0.00189251011472559,0.00329688036522268,0.69647798639161818,0.00111111111111111,-0.00111111111111111,-0.00222222222222222,-0.14999999999999999,1.84000000000000008,9.72000000000000064,0.00000000000000000,0.00000000000000000,11.74474937599999969
0.93015146255493164,39.46847535562272924,16.39372090723217212,32.42921280111480797,0.71762388692256129,-0.00184913652840385,0.00324177532677004,0.69642087023938681,0.00111111111111111,-0.28222222222222221,0.00222222222222222,-0.14999999999999999,1.81000000000000005,9.64000000000000057,0.00000000000000000,0.00000000000000000,11.74145584000000042
0.94015645980834961,39.48366661857482285,16.38309899547006410,32.45535407995981814,0.71763075687185307,-0.00184965818948271,0.00330381927951219,0.69641349809885356,0.00111111111111111,-0.28222222222222221,0.00222222222222222,-0.14999999999999999,1.81000000000000005,9.64000000000000057,0.00000000000000000,0.00000000000000000,11.74145584000000042
0.95013737678527832,39.42259442904787647,16.38231615384710338,32.44668158029111993,0.71758655508950053,-0.00174484524575769,0.00333265456395207,0.69645917675295876,0.00111111111111111,-0.28222222222222221,0.00222222222222222,-0.14999999999999999,1.81000000000000005,9.64000000000000057,0.00000000000000000,0.00000000000000000,11.74145584000000042
0.96013045310974121,39.41843555998264748,16.40588492919985697,32.41626818343002725,0.71761801056404928,-0.00180784948226762,0.00323761650833103,0.69642705320348575,0.00111111111111111,-0.00111111111111111,0.00222222222222222,-0.17000000000000001,1.82000000000000006,9.58999999999999986,0.00000000000000000,0.00000000000000000,11.74145584000000042
0.97024703025817871,39.36765611119529495,16.34994332759853108,32.37427388214942425,0.71757620816388690,-0.00198545660615071,0.00333936163098972,0.69646916091317390,0.00111111111111111,-0.00111111111111111,0.00222222222222222,-0.17000000000000001,1.82000000000000006,9.58999999999999986,0.00000000000000000,0.00000000000000000,11.74145584000000042
0.98020195960998535,39.47346121459212753,16.38971972028923219,32.42325704196172609,0.71759434006488421,-0.00183708525462427,0.00327491840849813,0.69645119221236762,0.00111111111111111,-0.00111111111111111,0.00222222222222222,-0.17000000000000001,1.82000000000000006,9.58999999999999986,0.00000000000000000,0.00000000000000000,11.74145584000000042
0.99028992652893066,39.40250971065512431,16.34530035285454730,32.45007818359919582,0.71757740224985944,-0.00179914840149717,0.00344599972425702,0.69646791737399727,0.00111111111111111,-0.00111111111111111,0.00222222222222222,-0.17000000000000001,1.82000000000000006,9.58999999999999986,0.00000000000000000,0.00000000000000000,11.74145584000000042
1.00011491775512695,39.40497790667487976,16.38209780569752283,32.41603336662739565,0.71761247131705963,-0.00169626794488035,0.00347355894685944,0.69643190483601769,0.00111111111111111,-0.00111111111111111,0.00222222222222222,-0.17000000000000001,1.82000000000000006,9.58999999999999986,0.00000000000000000,0.00000000000000000,11.74145584000000042
1.01012229919433594,39.43104357821058414,16.38493188228036601,32.38762454646271038,0.71765017543212994,-0.00178313108064546,0.00344295095665924,0.69639298692225005,0.00111111111111111,-0.00111111111111111,0.00222222222222222,-0.17000000000000001,1.82000000000000006,9.58999999999999986,0.00000000000000000,0.00000000000000000,11.74145584000000042
1.02013611793518066,39.40637017946161080,16.32456376640012152,32.43154792188123281,0.71756500610655949,-0.00186114257799527,0.00341787922791843,0.69648066467144742,0.00000000000000000,0.00222222222222222,0.00222222222222222,-0.13000000000000000,1.82000000000000006,9.72000000000000064,0.00000000000000000,0.00000000000000000,11.76780412799999986
1.03024172782897949,39.51028629338937037,16.43464101361724516,32.46127322345845556,0.71764976945651537,-0.00178288587130621,0.00320359019270452,0.69639454817427848,0.00000000000000000,0.00222222222222222,0.00222222222222222,-0.13000000000000000,1.82000000000000006,9.72000000000000064,0.00000000000000000,0.00000000000000000,11.76780412799999986
1.04026722908020020,39.45915968997235979,16.37263617147504746,32.43291955768719248,0.71760322630804252,-0.00189462307353503,0.00334153341501378,0.69644156549572322,0.00000000000000000,0.00222222222222222,0.00222222222222222,-0.13000000000000000,1.82000000000000006,9.72000000000000064,0.00000000000000000,0.00000000000000000,11.76780412799999986
1.05021023750305176,39.43373568062583701,16.40991510633206829,32.42109851509551532,0.71758795372019457,-0.00176594924197175,0.00329267157383038,0.69645787267633485,0.00000000000000000,0.00222222222222222,0.00222222222222222,-0.13000000000000000,1.82000000000000006,9.72000000000000064,0.00000000000000000,0.00000000000000000,11.76780412799999986
1.06019210815429688,39.43295208662311069,16.42480964448899172,32.42814035201767098,0.71763614020418387,-0.00179342542614840,0.00328374395638319,0.69640819274597199,-0.00111111111111111,0.00111111111111111,-0.28333333333333333,-0.14999999999999999,1.83000000000000007,9.61999999999999922,0.00000000000000000,0.00000000000000000,11.75792352000000029
1.07011485099792480,39.44263477414367713,16.36314605294945324,32.42233428548470187,0.71760579056543405,-0.00191288606406342,0.00332959224641309,0.69643893058138040,-0.00111111111111111,0.00111111111111111,-0.28333333333333333,-0.14999999999999999,1.83000000000000007,9.61999999999999922,0.00000000000000000,0.00000000000000000,11.75792352000000029
1.08022665977478027,39.50084174300567952,16.36966014428811889,32.43248036638919274,0.71759120961282319,-0.00188305677661662,0.00327681927679831,0.69645428596499281,-0.00111111111111111,0.00111111111111111,-0.28333333333333333,-0.14999999999999999,1.83000000000000007,9.61999999999999922,0.00000000000000000,0.00000000000000000,11.75792352000000029
1.09009718894958496,39.40711682669498828,16.37520369424086297,32.41595346329265226,0.71758479353905091,-0.00187859487056392,0.00335056452810591,0.69646055787831418,-0.00111111111111111,0.00111111111111111,-0.28333333333333333,-0.14999999999999999,1.83000000000000007,9.61999999999999922,0.00000000000000000,0.00000000000000000,11.75792352000000029
1.10015988349914551,39.41306179894642270,16.45007150592455147,32.46662446860123907,0.71761680232718705,-0.00161534843267586,0.00330314522874054,0.69642846359029742,-0.00111111111111111,0.00111111111111111,-0.28333333333333333,-0.14999999999999999,1.83000000000000007,9.61999999999999922,0.00000000000000000,0.00000000000000000,11.75792352000000029
1.11018466949462891,39.42322620878388761,16.45561137741774260,32.43537212692189797,0.71766116104011579,-0.00166681367967464,0.00329167631016339,0.69638268540636439,-0.00111111111111111,0.00111111111111111,-0.28333333333333333,-0.14999999999999999,1.83000000000000007,9.61999999999999922,0.00000000000000000,0.00000000000000000,11.75792352000000029
1.12013268470764160,39.44108898250818385,16.34852500433010292,32.40908480832240457,0.71761958790044988,-0.00181210062781265,0.00347038617477925,0.69642429579438214,0.00111111111111111,-0.00000000000000000,-0.00000000000000000,-0.14000000000000001,1.82000000000000006,9.66000000000000014,0.00000000000000000,0.00000000000000000,11.74474937599999969
1.13017439842224121,39.49879111260381848,16.40037526764397668,32.41346564833600752,0.71763532209148828,-0.00181284874111068,0.00329822823765330,0.69640891705705465,0.00111111111111111,-0.00000000000000000,-0.00000000000000000,-0.14000000000000001,1.82000000000000006,9.66000000000000014,0.00000000000000000,0.00000000000000000,11.74474937599999969
1.14017677307128906,39.44051194932323767,16.40313248625968612,32.43031962146417868,0.71763012561870931,-0.00173661470340487,0.00337340446515867,0.69641410605771192,0.00111111111111111,-0.00000000000000000,-0.00000000000000000,-0.14000000000000001,1.82000000000000006,9.66000000000000014,0.00000000000000000,0.00000000000000000,11.74474937599999969
1.15025615692138672,39.43526589410507910,16.43744675196566973,32.43311677265617732,0.71760509146297147,-0.00169326755980341,0.00333969734967348,0.69644017113676282,-0.00111111111111111,0.00222222222222222,-0.00111111111111111,-0.14999999999999999,1.83000000000000007,9.58000000000000007,0.00000000000000000,0.00000000000000000,11.74145584000000042
1.16019415855407715,39.43519326797629532,16.39514762623015187,32.42812741714261904,0.71760095003204172,-0.00178798198198307,0.00336501366481609,0.69644407982018097,-0.00111111111111111,0.00222222222222222,-0.00111111111111111,-0.14999999999999999,1.83000000000000007,9.58000000000000007,0.00000000000000000,0.00000000000000000,11.74145584000000042
1.17018294334411621,39.48072368497839335,16.33905814216668517,32.41651197296861397,0.71758004892756289,-0.00193761298314318,0.00339744364212032,0.69646505756839128,-0.00111111111111111,0.00222222222222222,-0.00111111111111111,-0.14999999999999999,1.83000000000000007,9.58000000000000007,0.00000000000000000,0.00000000000000000,11.74145584000000042
1.18020248413085938,39.44692303644960418,16.39626759456568905,32.40984335969591257,0.71756299666567014,-0.00179737454940815,0.00338209193729233,0.69648307712035629,-0.00111111111111111,0.00222222222222222,-0.00111111111111111,-0.14999999999999999,1.83000000000000007,9.58000000000000007,0.00000000000000000,0.00000000000000000,11.74145584000000042
1.19015479087829590,39.46353797550020914,16.37583917266136169,32.44823917490577259,0.71760492133744935,-0.00192058791833856,0.00331264588116143,0.69643988584197736,-0.00111111111111111,0.00222222222222222,-0.00111111111111111,-0.14999999999999999,1.83000000000000007,9.58000000000000007,0.00000000000000000,0.00000000000000000,11.74145584000000042
1.20019149780273438,39.41296297960021633,16.39358304876661876,32.38459592981867985,0.71761555162278046,-0.00173691007592303,0.00342551082587240,0.69642886864927034,-0.00111111111111111,0.00222222222222222,-0.00111111111111111,-0.14999999999999999,1.83000000000000007,9.58000000000000007,0.00000000000000000,0.00000000000000000,11.74145584000000042
1.21013426780700684,39.43768487321650440,16.40336275004517574,32.39621558188120076,0.71764110311699270,-0.00177751348374105,0.00326551046291672,0.69640320505024766,-0.00111111111111111,0.00111111111111111,0.00222222222222222,-0.14000000000000001,1.82000000000000006,9.71000000000000085,0.00000000000000000,0.00000000000000000,11.73157523200000085
1.22016358375549316,39.51080443500449491,16.38212469321264919,32.44015525838451453,0.71760471847510499,-0.00193523534137111,0.00326167768296372,0.69644029488903914,-0.00111111111111111,0.00111111111111111,0.00222222222222222,-0.14000000000000001,1.82000000000000006,9.71000000000000085,0.00000000000000000,0.00000000000000000,11.73157523200000085
1.23025417327880859,39.51284810979362305,16.41335074870867317,32.45172934135373310,0.71763998294002485,-0.00188544782688546,0.00316233544908342,0.69640455168446513,-0.00111111111111111,0.00111111111111111,0.00222222222222222,-0.14000000000000001,1.82000000000000006,9.71000000000000085,0.00000000000000000,0.00000000000000000,11.73157523200000085
1.24012207984924316,39.40174914219753788,16.36508295974833516,32.45302051117382547,0.71755687154216174,-0.00179992602778220,0.00343812550605350,0.69648910663550589,-0.00111111111111111,0.00111111111111111,0.00222222222222222,-0.14000000000000001,1.82000000000000006,9.71000000000000085,0.00000000000000000,0.00000000000000000,11.73157523200000085
1.25022602081298828,39.40397273017797630,16.40351064158317129,32.44032296605384147,0.71760045028736430,-0.00170918372062441,0.00334669518546809,0.69644488085541789,-0.00111111111111111,0.00111111111111111,0.00222222222222222,-0.14000000000000001,1.82000000000000006,9.71000000000000085,0.00000000000000000,0.00000000000000000,11.73157523200000085
1.26025295257568359,39.42463366740317809,16.38747696579948965,32.41942894488345672,0.71759712446095636,-0.00177905240739336,0.00335481645798367,0.69644809364692195,-0.00111111111111111,0.00111111111111111,0.00222222222222222,-0.14000000000000001,1.82000000000000006,9.71000000000000085,0.00000000000000000,0.00000000000000000,11.73157523200000085
1.27018070220947266,39.47717819852989152,16.35832300024447150,32.45288694308438693,0.71762557029093998,-0.00186537523537151,0.00333031038230525,0.69641867455761974,-0.00111111111111111,0.00111111111111111,-0.00000000000000000,-0.14000000000000001,1.80000000000000004,9.69999999999999929,0.00000000000000000,0.00000000000000000,11.73157523200000085
1.28020691871643066,39.49477421184766257,16.39397004438532690,32.39542377297600240,0.71762386779445486,-0.00186300524949615,0.00328278357730014,0.69642066089049304,-0.00111111111111111,0.00111111111111111,-0.00000000000000000,-0.14000000000000001,1.80000000000000004,9.69999999999999929,0.00000000000000000,0.00000000000000000,11.73157523200000085
1.29021215438842773,39.42262150704362966,16.39856258818510426,32.45778713228954615,0.71757829675698492,-0.00182255883771652,0.00328300182132858,0.69646772229706988,-0.00111111111111111,0.00111111111111111,-0.00000000000000000,-0.14000000000000001,1.80000000000000004,9.69999999999999929,0.00000000000000000,0.00000000000000000,11.73157523200000085
1.30023097991943359,39.39787340395761106,16.42415266462808177,32.38844622113483496,0.71763201059987602,-0.00172603228948139,0.00330689276779266,0.69641250895940743,-0.00111111111111111,0.00111111111111111,-0.00000000000000000,-0.14000000000000001,1.80000000000000004,9.69999999999999929,0.00000000000000000,0.00000000000000000,11.73157523200000085
1.31018924713134766,39.40027428208628635,16.38656019451373069,32.39175642360353891,0.71759886580896848,-0.00176771184381359,0.00338763816325840,0.69644616941454596,-0.28333333333333333,0.00222222222222222,-0.00111111111111111,-0.14000000000000001,1.82000000000000006,9.58999999999999986,0.00000000000000000,0.00000000000000000,11.75792352000000029
1.32014393806457520,39.48465196281219391,16.39522883995482516,32.42871441596451376,0.71760164171571206,-0.00177771911532775,0.00337565865780815,0.69644334188093759,-0.28333333333333333,0.00222222222222222,-0.00111111111111111,-0.14000000000000001,1.82000000000000006,9.58999999999999986,0.00000000000000000,0.00000000000000000,11.75792352000000029
1.33019375801086426,39.52400259377062497,16.42503719154238340,32.41962011815173383,0.71765938504824245,-0.00174162376029031,0.00331727358719384,0.69638421111826199,-0.28333333333333333,0.00222222222222222,-0.00111111111111111,-0.14000000000000001,1.82000000000000006,9.58999999999999986,0.00000000000000000,0.00000000000000000,11.75792352000000029
1.34015583992004395,39.48283840819611612,16.36030154642439882,32.45036632054635817,0.71761988719964898,-0.00184633631257451,0.00339779211398294,0.69642425542662856,-0.28333333333333333,0.00222222222222222,-0.00111111111111111,-0.14000000000000001,1.82000000000000006,9.58999999999999986,0.00000000000000000,0.00000000000000000,11.75792352000000029
1.35011100769042969,39.42773986617697091,16.39594585347045808,32.42263104744427693,0.71762405896879766,-0.00173014254078110,0.00336899853949690,0.69642039490869145,-0.28333333333333333,0.00222222222222222,-0.00111111111111111,-0.14000000000000001,1.82000000000000006,9.58999999999999986,0.00000000000000000,0.00000000000000000,11.75792352000000029
1.36008834838867188,39.44053375600199018,16.40314311060725672,32.43802617664326959,0.71759186271265996,-0.00173624268776079,0.00332375035813836,0.69645377212953730,0.00000000000000000,-0.00111111111111111,-0.00000000000000000,-0.14000000000000001,1.83000000000000007,9.72000000000000064,0.00000000000000000,0.00000000000000000,11.74145584000000042
1.37012362480163574,39.42990248112250384,16.38326089589788737,32.43271218446694348,0.71760731630455810,-0.00179734032460468,0.00331981196725320,0.69643771293808465,0.00000000000000000,-0.00111111111111111,-0.00000000000000000,-0.14000000000000001,1.83000000000000007,9.72000000000000064,0.00000000000000000,0.00000000000000000,11.74145584000000042
1.38010549545288086,39.45110542190996483,16.41314480723957203,32.44009604173898964,0.71761638418088214,-0.00181762207551257,0.00319580184750934,0.69642889676958353,0.00000000000000000,-0.00111111111111111,-0.00000000000000000,-0.14000000000000001,1.83000000000000007,9.72000000000000064,0.00000000000000000,0.00000000000000000,11.74145584000000042
1.39010238647460938,39.40605271619247674,16.37465925317709647,32.45655456683422102,0.71752907346616357,-0.00183808108104425,0.00337122059539768,0.69651797181438557,0.00000000000000000,-0.00111111111111111,-0.00000000000000000,-0.14000000000000001,1.83000000000000007,9.72000000000000064,0.00000000000000000,0.00000000000000000,11.74145584000000042
1.40008640289306641,39.41759409455942631,16.40821182766550734,32.42375082442686107,0.71760010539476704,-0.00174403142769734,0.00327678685053865,0.69644548225954817,0.00000000000000000,-0.00111111111111111,-0.00000000000000000,-0.14000000000000001,1.83000000000000007,9.72000000000000064,0.00000000000000000,0.00000000000000000,11.74145584000000042
1.41008305549621582,39.43684888725738347,16.41103433861753302,32.44184609193908386,0.71762961365906974,-0.00175399680867101,0.00330261312371015,0.69641492936415761,0.00000000000000000,-0.00000000000000000,-0.00111111111111111,-0.14999999999999999,1.81000000000000005,9.69999999999999929,0.00000000000000000,0.00000000000000000,11.75133644799999999
1.42014575004577637,39.51942283222983576,16.34770832671433638,32.41274013780969909,0.71762805377588590,-0.00196552694413738,0.00330366244253993,0.69641596689918861,0.00000000000000000,-0.00000000000000000,-0.00111111111111111,-0.14999999999999999,1.81000000000000005,9.69999999999999929,0.00000000000000000,0.00000000000000000,11.75133644799999999
1.43018651008605957,39.45987925476646296,16.37946398929569014,32.40530116364322311,0.71759562607289573,-0.00187102202602817,0.00327241321435647,0.69644978859166995,0.00000000000000000,-0.00000000000000000,-0.00111111111111111,-0.14999999999999999,1.81000000000000005,9.69999999999999929,0.00000000000000000,0.00000000000000000,11.75133644799999999
1.44016766548156738,39.47241417081809089,16.38426596758016984,32.45039031958690856,0.71763090573176502,-0.00188021729340702,0.00325515959698479,0.69641349201285152,0.00000000000000000,-0.00000000000000000,-0.00111111111111111,-0.14999999999999999,1.81000000000000005,9.69999999999999929,0.00000000000000000,0.00000000000000000,11.75133644799999999
1.45017766952514648,39.42796538020756003,16.40453561461372445,32.40277022726808553,0.71760447621462842,-0.00180887190938448,0.00323980131805428,0.69644098629141771,0.00000000000000000,-0.00000000000000000,-0.00111111111111111,-0.14999999999999999,1.81000000000000005,9.69999999999999929,0.00000000000000000,0.00000000000000000,11.75133644799999999
1.46019172668457031,39.38377664424637459,16.40563643598718713,32.41302447004301968,0.71757691693194070,-0.00175310621025848,0.00333917128871461,0.69646905519209590,0.00000000000000000,-0.00000000000000000,-0.00111111111111111,-0.14999999999999999,1.81000000000000005,9.69999999999999929,0.00000000000000000,0.00000000000000000,11.75133644799999999
1.47028565406799316,39.39400265024470116,16.40108771544473143,32.43782954482687586,0.71760539470295837,-0.00179508196093122,0.00336747824703583,0.69643946992127082,-0.00111111111111111,0.28333333333333333,-0.00111111111111111,-0.14000000000000001,1.83000000000000007,9.69999999999999929,0.00000000000000000,0.00000000000000000,11.73816230400000116
1.48021173477172852,39.49328213094263162,16.41838078502349774,32.42475291257244407,0.71763107798025760,-0.00184131897073579,0.00325986127177110,0.69641339645775791,-0.00111111111111111,0.28333333333333333,-0.00111111111111111,-0.14000000000000001,1.83000000000000007,9.69999999999999929,0.00000000000000000,0.00000000000000000,11.73816230400000116
1.49016928672790527,39.43166990983986153,16.38721890674647952,32.45895551231264164,0.71759601189103450,-0.00178370065682401,0.00339510872215205,0.69644903285654269,-0.00111111111111111,0.28333333333333333,-0.00111111111111111,-0.14000000000000001,1.83000000000000007,9.69999999999999929,0.00000000000000000,0.00000000000000000,11.73816230400000116
1.50018692016601562,39.40278339493521997,16.41489234355388405,32.42959701472904754,0.71760656616065899,-0.00168243229219314,0.00331956839469649,0.69643877411468313,-0.00111111111111111,0.28333333333333333,-0.00111111111111111,-0.14000000000000001,1.83000000000000007,9.69999999999999929,0.00000000000000000,0.00000000000000000,11.73816230400000116
1.51015424728393555,39.42853446846323351,16.41388242760387683,32.42262355215908798,0.71763151365716937,-0.00172621786162157,0.00334675392654413,0.69641283016338051,0.00000000000000000,-0.00000000000000000,-0.00000000000000000,-0.14000000000000001,1.82000000000000006,9.69999999999999929,0.00000000000000000,0.00000000000000000,11.75792352000000029
1.52009630203247070,39.41748759539570557,16.36392650284717476,32.43351935217987148,0.71761164953251744,-0.00180753532937167,0.00338443941649959,0.69643291050975498,0.00000000000000000,-0.00000000000000000,-0.00000000000000000,-0.14000000000000001,1.82000000000000006,9.69999999999999929,0.00000000000000000,0.00000000000000000,11.75792352000000029
1.53009557723999023,39.47526496935000040,16.40277102473316972,32.41368203769355461,0.71762044382194434,-0.00180954761086640,0.00332176142085030,0.69642414522136031,0.00000000000000000,-0.00000000000000000,-0.00000000000000000,-0.14000000000000001,1.82000000000000006,9.69999999999999929,0.00000000000000000,0.00000000000000000,11.75792352000000029
1.54008698463439941,39.41399469380186815,16.38995781834314158,32.42165138768928756,0.71762264043770252,-0.00177381612727180,0.00345263057987213,0.69642133715850874,0.00000000000000000,-0.00000000000000000,-0.00000000000000000,-0.14000000000000001,1.82000000000000006,9.69999999999999929,0.00000000000000000,0.00000000000000000,11.75792352000000029
1.55010056495666504,39.39139351365067654,16.41465824528111028,32.41111312707921144,0.71759916708795601,-0.00173466142014594,0.00334543300908704,0.69644614610349531,0.00000000000000000,-0.00000000000000000,-0.00000000000000000,-0.14000000000000001,1.82000000000000006,9.69999999999999929,0.00000000000000000,0.00000000000000000,11.75792352000000029
1.56007456779479980,39.39013802421206378,16.42133069937699474,32.40178424017889824,0.71763294717682835,-0.00172600478886780,0.00335326967715486,0.69641132214822643,-0.28444444444444444,-0.00111111111111111,-0.00111111111111111,-0.16000000000000000,1.82000000000000006,9.60999999999999943,0.00000000000000000,0.00000000000000000,11.73816230400000116
1.57005190849304199,39.42418489422396277,16.38843635198705329,32.40756936009307765,0.71763582762713574,-0.00186481296690519,0.00339993182689714,0.69640776980307062,-0.28444444444444444,-0.00111111111111111,-0.00111111111111111,-0.16000000000000000,1.82000000000000006,9.60999999999999943,0.00000000000000000,0.00000000000000000,11.73816230400000116
1.58006930351257324,39.49904813438879359,16.40167905719631491,32.39685861089652974,0.71761589758451760,-0.00185999341182553,0.00327972641286142,0.69642889612158687,-0.28444444444444444,-0.00111111111111111,-0.00111111111111111,-0.16000000000000000,1.82000000000000006,9.60999999999999943,0.00000000000000000,0.00000000000000000,11.73816230400000116
1.59005951881408691,39.40737170688842639,16.39499459746493315,32.41076562211908652,0.71760115626393228,-0.00182370984684423,0.00331112797981617,0.69644403295782731,-0.28444444444444444,-0.00111111111111111,-0.00111111111111111,-0.16000000000000000,1.82000000000000006,9.60999999999999943,0.00000000000000000,0.00000000000000000,11.73816230400000116
1.60009074211120605,39.43519903495313628,16.44822059767109934,32.41603397994241931,0.71763776284982195,-0.00166132402790138,0.00333806479416122,0.69640659004478644,-0.28444444444444444,-0.00111111111111111,-0.00111111111111111,-0.16000000000000000,1.82000000000000006,9.60999999999999943,0.00000000000000000,0.00000000000000000,11.73816230400000116
1.61007618904113770,39.45519222889717526,16.40827723900936519,32.43879384798404431,0.71763329079420191,-0.00181511686730097,0.00329055002442814,0.69641104067582038,0.00000000000000000,0.28444444444444444,-0.00111111111111111,-0.14999999999999999,1.82000000000000006,9.68999999999999950,0.00000000000000000,0.00000000000000000,11.73816230400000116
1.62011218070983887,39.40788302209399774,16.35841912578331758,32.42233562017436554,0.71757262826766477,-0.00189045716582096,0.00339220166535551,0.69647285826556193,0.00000000000000000,0.28444444444444444,-0.00111111111111111,-0.14999999999999999,1.82000000000000006,9.68999999999999950,0.00000000000000000,0.00000000000000000,11.73816230400000116
1.63011670112609863,39.52561110866717797,16.40620748361378389,32.43375443391831681,0.71762841672654210,-0.00188696542158368,0.00322812862720018,0.69641616441149601,0.00000000000000000,0.28444444444444444,-0.00111111111111111,-0.14999999999999999,1.82000000000000006,9.68999999999999950,0.00000000000000000,0.00000000000000000,11.73816230400000116
1.64012694358825684,39.49190967518813267,16.40184059556463225,32.44891495488347744,0.71760800452962681,-0.00183373544155358,0.00324136655699270,0.69643727843373016,0.00000000000000000,0.28444444444444444,-0.00111111111111111,-0.14999999999999999,1.82000000000000006,9.68999999999999950,0.00000000000000000,0.00000000000000000,11.73816230400000116
1.65014266967773438,39.42938213402161551,16.40194041939242808,32.41666170077771625,0.71758911638028533,-0.00173120853868422,0.00334391100905606,0.69645651783059648,0.00000000000000000,0.28444444444444444,-0.00111111111111111,-0.14999999999999999,1.82000000000000006,9.68999999999999950,0.00000000000000000,0.00000000000000000,11.73816230400000116
1.66010046005249023,39.41955362310493882,16.39886090203860292,32.42013059418167842,0.71760164010309335,-0.00178016453218002,0.00333371156068240,0.69644353935033310,0.00000000000000000,0.28444444444444444,-0.00111111111111111,-0.14999999999999999,1.82000000000000006,9.68999999999999950,0.00000000000000000,0.00000000000000000,11.73816230400000116
1.67011308670043945,39.41795358652193926,16.34818869751443415,32.40062490975975606,0.71757967521050192,-0.00193948169996333,0.00337327096532295,0.69646555491174189,-0.28444444444444444,-0.00000000000000000,-0.00111111111111111,-0.14999999999999999,1.81000000000000005,9.69999999999999929,0.00000000000000000,0.00000000000000000,11.75792352000000029
1.68014740943908691,39.47428481557705737,16.41441272098753856,32.43449000749499334,0.71759217240611484,-0.00180488638305379,0.00327026845557935,0.69645353170965096,-0.28444444444444444,-0.00000000000000000,-0.00111111111111111,-0.14999999999999999,1.81000000000000005,9.69999999999999929,0.00000000000000000,0.00000000000000000,11.75792352000000029
1.69008755683898926,39.40282788143053949,16.36888093352357743,32.47171778292780431,0.71756981953045074,-0.00175425204549737,0.00341506267297851,0.69647599674772487,-0.28444444444444444,-0.00000000000000000,-0.00111111111111111,-0.14999999999999999,1.81000000000000005,9.69999999999999929,0.00000000000000000,0.00000000000000000,11.75792352000000029
1.70008444786071777,39.44244924772485206,16.38541660674714606,32.40938056539120993,0.71759317779342913,-0.00185792309661190,0.00325540581755648,0.69645242596968404,-0.28444444444444444,-0.00000000000000000,-0.00111111111111111,-0.14999999999999999,1.81000000000000005,9.69999999999999929,0.00000000000000000,0.00000000000000000,11.75792352000000029
1.71009302139282227,39.41439704962748181,16.36718725020178411,32.39014018279602425,0.71757479146996750,-0.00184949265732224,0.00336452000819902,0.69647087378357564,-0.28444444444444444,-0.00000000000000000,-0.00111111111111111,-0.14999999999999999,1.81000000000000005,9.69999999999999929,0.00000000000000000,0.00000000000000000,11.75792352000000029
1.72022914886474609,39.42400564215009950,16.36412628260261570,32.40850576624772117,0.71758765738197017,-0.00186452774691103,0.00340283402677931,0.69645739153944153,-0.00111111111111111,0.00222222222222222,-0.28333333333333333,-0.14000000000000001,1.81000000000000005,9.73000000000000043,6.50000000000000000,6.50000000000000000,11.74145584000000042
1.73018980026245117,39.49029237386886848,16.45622166497644301,32.46508654245439374,0.71765072381351303,-0.00172759562891577,0.00317673566181595,0.69639382706469921,-0.00111111111111111,0.00222222222222222,-0.28333333333333333,-0.14000000000000001,1.81000000000000005,9.73000000000000043,6.50000000000000000,6.50000000000000000,11.74145584000000042
1.74032211303710938,39.41750676336128123,16.42263248814698784,32.45126142022491678,0.71757033814603255,-0.00185124891645652,0.00330300371627624,0.69647575180826504,-0.00111111111111111,0.00222222222222222,-0.28333333333333333,-0.14000000000000001,1.81000000000000005,9.73000000000000043,6.50000000000000000,6.50000000000000000,11.74145584000000042
1.75017571449279785,39.40768555307397492,16.47430394934265507,32.42449759473050364,0.71751513114584731,-0.00174950237212964,0.00333674792469748,0.69653272854295556,-0.00111111111111111,0.00222222222222222,-0.28333333333333333,-0.14000000000000001,1.81000000000000005,9.73000000000000043,6.50000000000000000,6.50000000000000000,11.74145584000000042
1.76009511947631836,39.39137287758523343,16.56618639308353025,32.43329333263584147,0.71738609027308209,-0.00176034134266871,0.00325169465007498,0.69666600689495506,-0.28333333333333333,-0.00111111111111111,-0.00111111111111111,-0.26000000000000001,1.88999999999999990,9.59999999999999964,7.29999999999999982,7.29999999999999982,11.75133644799999999
1.77009391784667969,39.44488262293405256,16.68093971078649318,32.41938100800375366,0.71726124851861550,-0.00192379116631912,0.00323701570784285,0.69679417486828399,-0.28333333333333333,-0.00111111111111111,-0.00111111111111111,-0.26000000000000001,1.88999999999999990,9.59999999999999964,7.29999999999999982,7.29999999999999982,11.75133644799999999
1.78019380569458008,39.47524200816281592,16.88848590187872034,32.49123057865806885,0.71705526709090517,-0.00187685908924738,0.00309507753855399,0.69700691663152092,-0.28333333333333333,-0.00111111111111111,-0.00111111111111111,-0.26000000000000001,1.88999999999999990,9.59999999999999964,7.29999999999999982,7.29999999999999982,11.75133644799999999
1.79009461402893066,39.39967967487820744,17.10312023200583198,32.51399706489980446,0.71692816846974083,-0.00181007306211982,0.00321909334677512,0.69713726218597549,-0.28333333333333333,-0.00111111111111111,-0.00111111111111111,-0.26000000000000001,1.88999999999999990,9.59999999999999964,7.29999999999999982,7.29999999999999982,11.75133644799999999
1.80008506774902344,39.32647228273538076,17.34516842489743738,32.45303010644688158,0.71688462142265053,-0.00164938829481893,0.00332735953699923,0.69718193304507470,-0.28333333333333333,-0.00111111111111111,-0.00111111111111111,-0.26000000000000001,1.88999999999999990,9.59999999999999964,7.29999999999999982,7.29999999999999982,11.75133644799999999
1.81008958816528320,39.38021044456257158,17.60643009969406947,32.46059659498792627,0.71696296419462646,-0.00171041336198990,0.00335275531288968,0.69710109847223534,-0.00333333333333333,-0.00666666666666667,0.04000000000000000,0.22000000000000000,1.87999999999999989,9.57000000000000028,7.29999999999999982,7.29999999999999982,11.74474937599999969
1.82008504867553711,39.40636909847574287,17.92334309203971898,32.49218530375834746,0.71701650161866071,-0.00176119515156925,0.00335019568587854,0.69704591727306009,-0.00333333333333333,-0.00666666666666667,0.04000000000000000,0.22000000000000000,1.87999999999999989,9.57000000000000028,7.29999999999999982,7.29999999999999982,11.74474937599999969
1.83014893531799316,39.46235581476111776,18.23948897720559259,32.53539437862617945,0.71698484473095847,-0.00170662903618861,0.00311588772023008,0.69707970210526915,-0.00333333333333333,-0.00666666666666667,0.04000000000000000,0.22000000000000000,1.87999999999999989,9.57000000000000028,7.29999999999999982,7.29999999999999982,11.74474937599999969
1.84009504318237305,39.43244437404968750,18.51537828661241392,32.53331547336339469,0.71685701805746682,-0.00175966462924767,0.00322846575634556,0.69721051071466911,-0.00333333333333333,-0.00666666666666667,0.04000000000000000,0.22000000000000000,1.87999999999999989,9.57000000000000028,7.29999999999999982,7.29999999999999982,11.74474937599999969
1.85008168220520020,39.45538787767276290,18.78931839003758242,32.45202256445954703,0.71686229627994091,-0.00169054562573371,0.00341777896033909,0.69720435240660650,-0.00333333333333333,-0.00666666666666667,0.04000000000000000,0.22000000000000000,1.87999999999999989,9.57000000000000028,7.29999999999999982,7.29999999999999982,11.74474937599999969
1.86008739471435547,39.46514692222840637,19.08379726923256570,32.50393474323840337,0.71682612681340541,-0.00169273840294041,0.00331782527908930,0.69724201722917467,-0.00333333333333333,-0.00666666666666667,0.04000000000000000,0.22000000000000000,1.87999999999999989,9.57000000000000028,7.29999999999999982,7.29999999999999982,11.74474937599999969
1.87010765075683594,39.40333854445616879,19.34631528549062907,32.46434189470451059,0.71680989579972132,-0.00169260960260430,0.00362638531085449,0.69725716753999967,-0.00555555555555556,0.02000000000000000,-0.00444444444444444,-0.46999999999999997,1.72999999999999998,9.67999999999999972,7.29999999999999982,7.29999999999999982,11.77109766400000090
1.88019108772277832,39.51085254171052696,19.66201705813661960,32.49876960997331565,0.71680060623452013,-0.00178191401060631,0.00336089694357898,0.69726782519776254,-0.00555555555555556,0.02000000000000000,-0.00444444444444444,-0.46999999999999997,1.72999999999999998,9.67999999999999972,7.29999999999999982,7.29999999999999982,11.77109766400000090
1.89011240005493164,39.52615299979689922,19.93682016072603247,32.50094277066206416,0.71679197561515995,-0.00187481429364957,0.00333645537003344,0.69727657126182285,-0.00555555555555556,0.02000000000000000,-0.00444444444444444,-0.46999999999999997,1.72999999999999998,9.67999999999999972,7.29999999999999982,7.29999999999999982,11.77109766400000090
1.90008020401000977,39.52675887255595910,20.22149885912248735,32.50535261649324070,0.71675742610914783,-0.00167205943150640,0.00333751257397078,0.69731259657664679,-0.00555555555555556,0.02000000000000000,-0.00444444444444444,-0.46999999999999997,1.72999999999999998,9.67999999999999972,7.29999999999999982,7.29999999999999982,11.77109766400000090
1.91009235382080078,39.47493732013593615,20.50048347274542948,32.49134702271000208,0.71668046389901774,-0.00161935467774670,0.00345940143056260,0.69739122657060870,0.28111111111111109,-0.00555555555555556,0.00444444444444444,-0.17999999999999999,1.69999999999999996,9.63000000000000078,7.29999999999999982,7.29999999999999982,11.76121705599999956
1.92009758949279785,39.47832447453240690,20.74709393299172788,32.50461322562773603,0.71664777485928732,-0.00173259148447593,0.00348458973733279,0.69742442067247867,0.28111111111111109,-0.00555555555555556,0.00444444444444444,-0.17999999999999999,1.69999999999999996,9.63000000000000078,7.29999999999999982,7.29999999999999982,11.76121705599999956
1.93015050888061523,39.51081169526216996,20.99479166484114856,32.45214537447103709,0.71665024338588434,-0.00174259050624742,0.00353757413043905,0.69742159244072144,0.28111111111111109,-0.00555555555555556,0.00444444444444444,-0.17999999999999999,1.69999999999999996,9.63000000000000078,7.29999999999999982,7.29999999999999982,11.76121705599999956
1.94009256362915039,39.52165360130393879,21.26865586994128776,32.53156819729912286,0.71665299487091683,-0.00172696134404130,0.00342120241278322,0.69741938453208518,0.28111111111111109,-0.00555555555555556,0.00444444444444444,-0.17999999999999999,1.69999999999999996,9.63000000000000078,7.29999999999999982,7.29999999999999982,11.76121705599999956
1.95008945465087891,39.48640213591681203,21.48743762423829651,32.52910659672480875,0.71657303915265547,-0.00168034136270964,0.00345223347048042,0.69750149684176099,0.28111111111111109,-0.00555555555555556,0.00444444444444444,-0.17999999999999999,1.69999999999999996,9.63000000000000078,7.29999999999999982,7.29999999999999982,11.76121705599999956
1.96008658409118652,39.50312746339508152,21.71627746669216208,32.52693923145471899,0.71645417474371353,-0.00175499771927262,0.00359757301831966,0.69762267232629949,0.00333333333333333,-0.00777777777777778,0.01666666666666667,-0.04000000000000000,1.79000000000000004,9.56000000000000050,7.29999999999999982,7.29999999999999982,11.73816230400000116
1.97008585929870605,39.48221113648545355,21.99824976713443903,32.47883896487098099,0.71637646851098669,-0.00168433377237325,0.00382780715936688,0.69770141627763760,0.00333333333333333,-0.00777777777777778,0.01666666666666667,-0.04000000000000000,1.79000000000000004,9.56000000000000050,7.29999999999999982,7.29999999999999982,11.73816230400000116
1.98009061813354492,39.48428433045256014,22.26449962157026263,32.46341090517710626,0.71628130646061161,-0.00177743895954430,0.00375771034274901,0.69779926220855548,0.00333333333333333,-0.00777777777777778,0.01666666666666667,-0.04000000000000000,1.79000000000000004,9.56000000000000050,7.29999999999999982,7.29999999999999982,11.73816230400000116
1.99011707305908203,39.47820671626403310,22.53373052839752333,32.53415242999158608,0.71620859158145145,-0.00176546665843425,0.00378388831335177,0.69787378419139900,0.00333333333333333,-0.00777777777777778,0.01666666666666667,-0.04000000000000000,1.79000000000000004,9.56000000000000050,7.29999999999999982,7.29999999999999982,11.73816230400000116
2.00010514259338379,39.44060346433995790,22.87287787731997923,32.53193576138131249,0.71616477590278016,-0.00160755989368272,0.00382638831067215,0.69791889805320906,0.00333333333333333,-0.00777777777777778,0.01666666666666667,-0.04000000000000000,1.79000000000000004,9.56000000000000050,7.29999999999999982,7.29999999999999982,11.73816230400000116
2.01009750366210938,39.47487072660752006,23.18527245713710272,32.55432179192340669,0.71611795093158659,-0.00159497393674894,0.00367296186447576,0.69796779708151946,-0.00111111111111111,-0.00222222222222222,0.02222222222222222,-0.19000000000000000,1.94999999999999996,9.63000000000000078,7.29999999999999982,7.29999999999999982,11.75792352000000029
2.02014446258544922,39.56379191211252788,23.46496631405191025,32.54778192133993997,0.71609517859504523,-0.00176970437040038,0.00349945528768275,0.69799163114758156,-0.00111111111111111,-0.00222222222222222,0.02222222222222222,-0.19000000000000000,1.94999999999999996,9.63000000000000078,7.29999999999999982,7.29999999999999982,11.75792352000000029
2.03020310401916504,39.61905197424565728,23.78792479580259922,32.57067104412876546,0.71606823834566735,-0.00166777073645617,0.00350520596534179,0.69801949120668794,-0.00111111111111111,-0.00222222222222222,0.02222222222222222,-0.19000000000000000,1.94999999999999996,9.63000000000000078,7.29999999999999982,7.29999999999999982,11.75792352000000029
2.04017114639282227,39.58750008349417016,24.07992154086716141,32.52994001755659070,0.71598217790581420,-0.00161982767545316,0.00355130408753285,0.69810764593923957,-0.00111111111111111,-0.00222222222222222,0.02222222222222222,-0.19000000000000000,1.94999999999999996,9.63000000000000078,7.29999999999999982,7.29999999999999982,11.75792352000000029
2.05019998550415039,39.60650711769603305,24.38426134439295012,32.57342315252198972,0.71598473067751189,-0.00149279902663633,0.00342891785303886,0.69810592284414408,-0.00111111111111111,-0.00222222222222222,0.02222222222222222,-0.19000000000000000,1.94999999999999996,9.63000000000000078,7.29999999999999982,7.29999999999999982,11.75792352000000029
2.06019449234008789,39.63263544411605466,24.66024668754476679,32.59688607636812918,0.71589324971135859,-0.00145927785070383,0.00343233850118352,0.69819978844044228,0.00333333333333333,0.00333333333333333,0.00666666666666667,-0.22000000000000000,1.86000000000000010,9.61999999999999922,14.00000000000000000,14.00000000000000000,11.76451059200000060
2.07011008262634277,39.70055391931594357,24.94399497624692685,32.59229737296248430,0.71583413594819234,-0.00156980612307198,0.00342907121938550,0.69826017141937369,0.00333333333333333,0.00333333333333333,0.00666666666666667,-0.22000000000000000,1.86000000000000010,9.61999999999999922,14.00000000000000000,14.00000000000000000,11.76451059200000060
2.08014750480651855,39.78040313883445123,25.28998883382230289,32.67098328151105591,0.71583916411783455,-0.00152052968519136,0.00312358870757884,0.69825655907992867,0.00333333333333333,0.00333333333333333,0.00666666666666667,-0.22000000000000000,1.86000000000000010,9.61999999999999922,14.00000000000000000,14.00000000000000000,11.76451059200000060
2.09012389183044434,39.78758311801481540,25.68796224468033529,32.72205421829432481,0.71574521819556358,-0.00144169440226870,0.00311162786092146,0.69835307826305948,0.00333333333333333,0.00333333333333333,0.00666666666666667,-0.22000000000000000,1.86000000000000010,9.61999999999999922,14.00000000000000000,14.00000000000000000,11.76451059200000060
2.10007262229919434,39.85087248066885479,26.20899178253480954,32.66489937439524027,0.71578603275685548,-0.00145631373491168,0.00302369177847222,0.69831160075465992,0.00333333333333333,0.00333333333333333,0.00666666666666667,-0.22000000000000000,1.86000000000000010,9.61999999999999922,14.00000000000000000,14.00000000000000000,11.76451059200000060
2.11009573936462402,39.93880522716809622,26.89670675856189419,32.62014999530662607,0.71582217960757033,-0.00149070846643069,0.00302192935289328,0.69827448250177504,0.00333333333333333,0.00333333333333333,0.00666666666666667,-0.22000000000000000,1.86000000000000010,9.61999999999999922,14.00000000000000000,14.00000000000000000,11.76451059200000060
2.12007975578308105,39.90146300869036367,27.54093916621139826,32.64173716002306946,0.71561027245983388,-0.00145664118500338,0.00317381741496088,0.69849104720779143,0.00222222222222222,-0.00666666666666667,0.01888888888888889,-0.08000000000000000,1.87000000000000011,9.52999999999999936,25.19999999999999929,25.19999999999999929,11.74474937599999969
2.13015270233154297,39.97221090142223687,28.38325879732242285,32.67304669095108238,0.71561629347311662,-0.00136749730918732,0.00305882525108029,0.69848557183022120,0.00222222222222222,-0.00666666666666667,0.01888888888888889,-0.08000000000000000,1.87000000000000011,9.52999999999999936,25.19999999999999929,25.19999999999999929,11.74474937599999969
2.14017772674560547,39.89591024757248761,29.30741173107642794,32.75481689262652196,0.71569385345183689,-0.00105824402541319,0.00328135631456921,0.69840562780634896,0.00222222222222222,-0.00666666666666667,0.01888888888888889,-0.08000000000000000,1.87000000000000011,9.52999999999999936,25.19999999999999929,25.19999999999999929,11.74474937599999969
2.15020084381103516,39.86238316738792520,30.26992015826927584,32.76859963987708824,0.71556042286011923,-0.00105020956243343,0.00325038130969152,0.69854249213448949,0.00222222222222222,-0.00666666666666667,0.01888888888888889,-0.08000000000000000,1.87000000000000011,9.52999999999999936,25.19999999999999929,25.19999999999999929,11.74474937599999969
2.16013503074645996,39.81276459675986246,31.58069203492813060,32.71382878305275455,0.71546578889845769,-0.00122259541226767,0.00337794308861271,0.69863853291731270,0.00222222222222222,0.06444444444444444,0.00888888888888889,-2.56000000000000005,1.68999999999999995,10.15000000000000036,37.20000000000000284,37.20000000000000284,11.73157523200000085
2.17024445533752441,39.82418541620945263,33.10761176672963302,32.71397250564779569,0.71539294821594046,-0.00126063771005732,0.00359304710528005,0.69871197960817011,0.00222222222222222,0.06444444444444444,0.00888888888888889,-2.56000000000000005,1.68999999999999995,10.15000000000000036,37.20000000000000284,37.20000000000000284,11.73157523200000085
2.18014264106750488,39.95952454892960759,34.68874782721031380,32.71018465840936784,0.71540307842342810,-0.00156635113050349,0.00316675209739775,0.69870305109364728,0.00222222222222222,0.06444444444444444,0.00888888888888889,-2.56000000000000005,1.68999999999999995,10.15000000000000036,37.20000000000000284,37.20000000000000284,11.73157523200000085
2.19017457962036133,39.89112984006396800,36.70473884257206265,32.68331578579927310,0.71525937280930341,-0.00176228388138526,0.00321472828485779,0.69884947555680244,0.00222222222222222,0.06444444444444444,0.00888888888888889,-2.56000000000000005,1.68999999999999995,10.15000000000000036,37.20000000000000284,37.20000000000000284,11.73157523200000085
2.20017457008361816,39.93437734812983564,38.75220965594881761,32.65572898436749227,0.71516924091700873,-0.00161944659344985,0.00313397149117019,0.69894242428229569,0.00222222222222222,0.06444444444444444,0.00888888888888889,-2.56000000000000005,1.68999999999999995,10.15000000000000036,37.20000000000000284,37.20000000000000284,11.73157523200000085
2.21023917198181152,39.94836763318071604,41.17239582771775730,32.66585220084898111,0.71491711695101701,-0.00174333316509309,0.00321314330793035,0.69919965130855433,0.00222222222222222,0.06444444444444444,0.00888888888888889,-2.56000000000000005,1.68999999999999995,10.15000000000000036,37.20000000000000284,37.20000000000000284,11.73157523200000085
2.22023582458496094,40.11545601299923192,43.61105592377142415,32.67339543532398238,0.71483692993795322,-0.00172182936122573,0.00315676899364332,0.69928194150146172,-0.01777777777777778,-0.01333333333333333,0.00666666666666667,2.74000000000000021,2.00999999999999979,9.71000000000000085,48.39999999999999858,48.39999999999999858,11.71181401599999994
2.23018193244934082,40.18067745900719245,45.90419690156917909,32.68002632284292019,0.71482702703344303,-0.00168188759266315,0.00304473923269838,0.69929265850547895,-0.01777777777777778,-0.01333333333333333,0.00666666666666667,2.74000000000000021,2.00999999999999979,9.71000000000000085,48.39999999999999858,48.39999999999999858,11.71181401599999994
2.24007654190063477,40.21125635735933912,48.58300760844358024,32.72938988972177299,0.71471429858542168,-0.00162561519953134,0.00317018590919683,0.69940744826894186,-0.01777777777777778,-0.01333333333333333,0.00666666666666667,2.74000000000000021,2.00999999999999979,9.71000000000000085,48.39999999999999858,48.39999999999999858,11.71181401599999994
2.25009012222290039,40.26385569569592349,51.27629438316605359,32.63873722212814954,0.71465706785014205,-0.00161582942832051,0.00295667703769493,0.69946688451133354,-0.01777777777777778,-0.01333333333333333,0.00666666666666667,2.74000000000000021,2.00999999999999979,9.71000000000000085,48.39999999999999858,48.39999999999999858,11.71181401599999994
2.26005506515502930,40.29389575041302152,54.38701907095927623,32.57525975506404592,0.71448261064792662,-0.00156639984974159,0.00335703024924150,0.69964339189414204,-0.01000000000000000,0.06222222222222222,0.04888888888888889,1.14999999999999991,2.54999999999999982,9.55000000000000071,55.89999999999999858,55.89999999999999858,11.66241097600000032
2.27016329765319824,40.49980072336502701,57.29303932434694957,32.54213292137431068,0.71442596597356545,-0.00193496025474440,0.00331596820070013,0.69970050695025388,-0.01000000000000000,0.06222222222222222,0.04888888888888889,1.14999999999999991,2.54999999999999982,9.55000000000000071,55.89999999999999858,55.89999999999999858,11.66241097600000032
2.28013610839843750,40.78985695751822504,60.79335610604559292,32.59268815893413063,0.71448775375081808,-0.00203638849720868,0.00294049813055327,0.69963880419309454,-0.01000000000000000,0.06222222222222222,0.04888888888888889,1.14999999999999991,2.54999999999999982,9.55000000000000071,55.89999999999999858,55.89999999999999858,11.66241097600000032
2.29009866714477539,40.77086845325553810,64.42046247915577339,32.71143342932449372,0.71434872214789191,-0.00186503715333015,0.00313577846568542,0.69978038819011279,-0.01000000000000000,0.06222222222222222,0.04888888888888889,1.14999999999999991,2.54999999999999982,9.55000000000000071,55.89999999999999858,55.89999999999999858,11.66241097600000032
2.30016756057739258,40.82513393995048290,67.86597351851763449,32.65795365134194839,0.71412515194497417,-0.00197390581241841,0.00295769013125770,0.70000901645943026,-0.01000000000000000,0.06222222222222222,0.04888888888888889,1.14999999999999991,2.54999999999999982,9.55000000000000071,55.89999999999999858,55.89999999999999858,11.66241097600000032
2.31022930145263672,40.75215948348193251,71.66952265592365734,32.62614327099679912,0.71377281831588624,-0.00198969531216548,0.00320895753267381,0.70036712339851781,-0.01000000000000000,0.06222222222222222,0.04888888888888889,1.14999999999999991,2.54999999999999982,9.55000000000000071,55.89999999999999858,55.89999999999999858,11.66241097600000032
2.32008814811706543,40.93023564123846114,75.54138601386016205,32.57176795244559031,0.71369135871545886,-0.00221323201602112,0.00331826614766308,0.70044895260732520,0.00777777777777778,0.04222222222222222,0.00555555555555556,1.55000000000000004,0.25000000000000000,8.75999999999999979,62.70000000000000284,62.70000000000000284,11.72169462400000128
2.33013486862182617,41.00576505040626074,79.19908577174838626,32.58958644838930496,0.71354041792556666,-0.00210240804836543,0.00309482033217556,0.70060407788858747,0.00777777777777778,0.04222222222222222,0.00555555555555556,1.55000000000000004,0.25000000000000000,8.75999999999999979,62.70000000000000284,62.70000000000000284,11.72169462400000128
2.34012985229492188,41.05032323637052372,83.24578220550300500,32.65866930599731432,0.71329186213039864,-0.00190231222398481,0.00316647609303010,0.70085738496209271,0.00777777777777778,0.04222222222222222,0.00555555555555556,1.55000000000000004,0.25000000000000000,8.75999999999999979,62.70000000000000284,62.70000000000000284,11.72169462400000128
2.35013318061828613,41.16407300270305569,87.08302033125887931,32.60856066826005417,0.71320375030816707,-0.00181943372966343,0.00302891013368699,0.70094787674310777,0.00777777777777778,0.04222222222222222,0.00555555555555556,1.55000000000000004,0.25000000000000000,8.75999999999999979,62.70000000000000284,62.70000000000000284,11.72169462400000128
2.36015987396240234,41.34807856217492628,91.34872968669111515,32.46140824942946779,0.71299016044692232,-0.00226325456066093,0.00270537979048561,0.70116516578111310,0.00777777777777778,0.04222222222222222,0.00555555555555556,1.55000000000000004,0.25000000000000000,8.75999999999999979,62.70000000000000284,62.70000000000000284,11.72169462400000128
2.37008333206176758,41.64955294388130369,95.81898483019625701,32.55891442475262210,0.71309341727687581,-0.00239978525400617,0.00292161692656047,0.70105883021445248,-0.00555555555555556,0.05555555555555555,0.03111111111111111,-1.25000000000000000,2.06999999999999984,7.26999999999999957,67.90000000000000568,67.90000000000000568,11.71181401599999994
2.38015747070312500,41.75328348352378072,99.86101592714676656,32.49064318045170552,0.71274061116050558,-0.00252432700199483,0.00255009794879548,0.70141852411822392,-0.00555555555555556,0.05555555555555555,0.03111111111111111,-1.25000000000000000,2.06999999999999984,7.26999999999999957,67.90000000000000568,67.90000000000000568,11.71181401599999994
2.39010095596313477,41.59072067873608347,104.55358528417825426,32.66805911543412577,0.71245560480092240,-0.00196159018120381,0.00275359336391788,0.70170904303371950,-0.00555555555555556,0.05555555555555555,0.03111111111111111,-1.25000000000000000,2.06999999999999984,7.26999999999999957,67.90000000000000568,67.90000000000000568,11.71181401599999994
2.40013074874877930,41.63330209420661276,108.77732167747041103,32.66089920255306112,0.71215456182403258,-0.00195417374320249,0.00281522728183003,0.70201434157255882,-0.00555555555555556,0.05555555555555555,0.03111111111111111,-1.25000000000000000,2.06999999999999984,7.26999999999999957,67.90000000000000568,67.90000000000000568,11.71181401599999994
2.41012787818908691,41.73481020962808685,113.64255489823644041,32.63905837164618617,0.71184295345913906,-0.00172090536435828,0.00264243470834301,0.70233159236510856,-0.00555555555555556,0.05555555555555555,0.03111111111111111,-1.25000000000000000,2.06999999999999984,7.26999999999999957,67.90000000000000568,67.90000000000000568,11.71181401599999994
2.42016410827636719,41.77198389535551115,117.95576561507452595,32.69262203245039444,0.71159649766285527,-0.00186663425659016,0.00255164375351821,0.70258126170903934,-0.00555555555555556,0.05555555555555555,0.03111111111111111,-1.25000000000000000,2.06999999999999984,7.26999999999999957,67.90000000000000568,67.90000000000000568,11.71181401599999994
2.43025946617126465,42.11948008714852421,122.84285062973692959,32.71791345258877470,0.71151652611604788,-0.00188044426521225,0.00225178056471617,0.70266323831363586,-0.00555555555555556,0.05555555555555555,0.03111111111111111,-1.25000000000000000,2.06999999999999984,7.26999999999999957,67.90000000000000568,67.90000000000000568,11.71181401599999994
2.44010090827941895,42.00369106331344682,127.76374197463390203,32.65797914677244052,0.71128062788005919,-0.00179276242930312,0.00258454378940693,0.70290111291619195,-0.01444444444444444,0.27000000000000002,0.05444444444444444,-1.57000000000000006,0.98999999999999999,11.27999999999999936,72.40000000000000568,72.40000000000000568,11.74474937599999969
2.45010614395141602,41.93161311487754261,132.04671787610956812,32.53789151205554475,0.71091596574772187,-0.00187830680473150,0.00273398716177718,0.70326914259245699,-0.01444444444444444,0.27000000000000002,0.05444444444444444,-1.57000000000000006,0.98999999999999999,11.27999999999999936,72.40000000000000568,72.40000000000000568,11.74474937599999969
2.46013760566711426,42.15968035487303212,137.18453580604546005,32.52039401637491522,0.71073274378541473,-0.00177230372992400,0.00242478937752307,0.70345571733209988,-0.01444444444444444,0.27000000000000002,0.05444444444444444,-1.57000000000000006,0.98999999999999999,11.27999999999999936,72.40000000000000568,72.40000000000000568,11.74474937599999969
2.47039365768432617,42.12358033436311189,142.23292808979707047,32.71960475859881257,0.71045029095040735,-0.00168430688497380,0.00232121808686739,0.70374154285887658,0.02333333333333333,-0.01000000000000000,0.06000000000000000,0.20000000000000001,2.47000000000000020,8.21000000000000085,73.20000000000000284,73.20000000000000284,11.58336611200000021
2.48013901710510254,42.22071275961095438,146.81555766945561459,32.72898852563167083,0.71013150992791652,-0.00171915522487825,0.00203311715904101,0.70406402375595623,0.02333333333333333,-0.01000000000000000,0.06000000000000000,0.20000000000000001,2.47000000000000020,8.21000000000000085,73.20000000000000284,73.20000000000000284,11.58336611200000021
2.49018192291259766,42.06798849209459945,151.98888580518971025,32.72724261476849250,0.70981073267740491,-0.00167213572709064,0.00224577994300669,0.70438688531979610,0.02333333333333333,-0.01000000000000000,0.06000000000000000,0.20000000000000001,2.47000000000000020,8.21000000000000085,73.20000000000000284,73.20000000000000284,11.58336611200000021
2.50014853477478027,41.96232146967552978,156.57824983671369523,32.71491457339411824,0.70964690369170424,-0.00154557740511864,0.00231854560506696,0.70455199071292030,0.02333333333333333,-0.01000000000000000,0.06000000000000000,0.20000000000000001,2.47000000000000020,8.21000000000000085,73.20000000000000284,73.20000000000000284,11.58336611200000021
2.51012229919433594,42.50781390003404425,161.93125865989824774,32.70171772358879281,0.70959900181819480,-0.00209791454639651,0.00202925525804149,0.70459970018179519,0.02333333333333333,-0.01000000000000000,0.06000000000000000,0.20000000000000001,2.47000000000000020,8.21000000000000085,73.20000000000000284,73.20000000000000284,11.58336611200000021
2.52008056640625000,42.35519849644767021,167.04458128928433780,32.43987888695045996,0.70924719490021249,-0.00228163380655985,0.00309513524533315,0.70494938173684929,0.02888888888888889,-0.05444444444444444,0.07222222222222222,1.66999999999999993,2.45999999999999996,6.83999999999999986,73.20000000000000284,73.20000000000000284,11.79415241600000108
2.53016948699951172,42.40930581739932848,171.83999540302298215,32.48130045824559176,0.70875758826219182,-0.00256477997304307,0.00279215851971720,0.70544192307747922,0.02888888888888889,-0.05444444444444444,0.07222222222222222,1.66999999999999993,2.45999999999999996,6.83999999999999986,73.20000000000000284,73.20000000000000284,11.79415241600000108
2.54025316238403320,42.50519931042560273,177.27270031443367770,32.49304512529389655,0.70844672489986127,-0.00240722576207168,0.00280897298838946,0.70575459822344822,0.02888888888888889,-0.05444444444444444,0.07222222222222222,1.66999999999999993,2.45999999999999996,6.83999999999999986,73.20000000000000284,73.20000000000000284,11.79415241600000108
2.55018711090087891,42.51007357604986936,182.02316774254663301,32.43954699429026078,0.70813974570917093,-0.00250938665715519,0.00273825802009371,0.70606253651399098,0.02888888888888889,-0.05444444444444444,0.07222222222222222,1.66999999999999993,2.45999999999999996,6.83999999999999986,73.20000000000000284,73.20000000000000284,11.79415241600000108
2.56020736694335938,42.45890598987554654,187.38307588483664290,32.25749576762538595,0.70786297771912188,-0.00236004139725366,0.00312692662424362,0.70633891108242652,-0.00666666666666667,0.08777777777777777,0.07555555555555556,-1.89999999999999991,0.52000000000000002,11.41999999999999993,73.20000000000000284,73.20000000000000284,11.71840108800000024
2.57029128074645996,42.47042111764659467,192.65110791003493773,32.18875564178269855,0.70752088267036084,-0.00220288400169109,0.00369036540295401,0.70667936795312003,-0.00666666666666667,0.08777777777777777,0.07555555555555556,-1.89999999999999991,0.52000000000000002,11.41999999999999993,73.20000000000000284,73.20000000000000284,11.71840108800000024
2.58015847206115723,42.57759220882139317,197.49049986530624778,32.18562736311262285,0.70731573642124546,-0.00232519616371028,0.00347363537965481,0.70688540537411071,-0.00666666666666667,0.08777777777777777,0.07555555555555556,-1.89999999999999991,0.52000000000000002,11.41999999999999993,73.20000000000000284,73.20000000000000284,11.71840108800000024
2.59009146690368652,42.70697865940795168,202.83050512246177277,32.37297884474995158,0.70709794654539682,-0.00233879882881282,0.00267769421565828,0.70710667792420745,-0.00666666666666667,0.08777777777777777,0.07555555555555556,-1.89999999999999991,0.52000000000000002,11.41999999999999993,73.20000000000000284,73.20000000000000284,11.71840108800000024
2.60008788108825684,42.56177812434412999,207.86565154797435184,32.42679064426845059,0.70688061152387183,-0.00137568955874137,0.00257675762691798,0.70732684725663209,-0.00666666666666667,0.08777777777777777,0.07555555555555556,-1.89999999999999991,0.52000000000000002,11.41999999999999993,73.20000000000000284,73.20000000000000284,11.71840108800000024
2.61009621620178223,42.52267444164856869,213.02360713329758823,32.12008264974942762,0.70656917481131443,-0.00153858560166459,0.00370509514030109,0.70763260681712892,-0.00666666666666667,0.08777777777777777,0.07555555555555556,-1.89999999999999991,0.52000000000000002,11.41999999999999993,73.20000000000000284,73.20000000000000284,11.71840108800000024
2.62009787559509277,42.70874209780675557,217.81943115352933660,32.08771186783719287,0.70648663596981354,-0.00200999061048434,0.00344343678065628,0.70771515165138255,-0.00666666666666667,0.08777777777777777,0.07555555555555556,-1.89999999999999991,0.52000000000000002,11.41999999999999993,73.20000000000000284,73.20000000000000284,11.71840108800000024
2.63025593757629395,42.56160026157944998,223.26099218214653774,32.03897009991739964,0.70620292966539400,-0.00206256970014068,0.00307141922788850,0.70799981237439114,0.01777777777777778,0.04222222222222222,0.09444444444444444,-0.67000000000000004,1.78000000000000003,8.83000000000000007,74.70000000000000284,74.70000000000000284,11.72169462400000128
2.64018630981445312,42.45943878144611716,228.60965670337350275,32.08829132921118799,0.70592542923564883,-0.00217658367109159,0.00307324084908640,0.70827615096985330,0.01777777777777778,0.04222222222222222,0.09444444444444444,-0.67000000000000004,1.78000000000000003,8.83000000000000007,74.70000000000000284,74.70000000000000284,11.72169462400000128
2.65019631385803223,42.49860017956566338,233.56999147023569208,32.14947111484638498,0.70558345155212210,-0.00215174148521427,0.00310319878685150,0.70861677447098625,0.01777777777777778,0.04222222222222222,0.09444444444444444,-0.67000000000000004,1.78000000000000003,8.83000000000000007,74.70000000000000284,74.70000000000000284,11.72169462400000128
2.66020607948303223,42.91715108560086378,239.02000751837206849,32.03465225570037234,0.70552173454751543,-0.00233272229701775,0.00316685159226677,0.70867736773424850,0.01777777777777778,0.04222222222222222,0.09444444444444444,-0.67000000000000004,1.78000000000000003,8.83000000000000007,74.70000000000000284,74.70000000000000284,11.72169462400000128
2.67029476165771484,42.88072530056528109,244.53315588709656936,31.95905805011725320,0.70518935090243340,-0.00241019801980190,0.00284707857448801,0.70900921324260668,-0.02666666666666667,0.10666666666666667,0.05444444444444444,-0.59999999999999998,1.90999999999999992,10.16000000000000014,74.70000000000000284,74.70000000000000284,11.72828169599999981
2.68014216423034668,42.66883550479955289,249.45695031467298008,31.91831557111357753,0.70470182353417044,-0.00232799245409263,0.00282434363620568,0.70949414616455664,-0.02666666666666667,0.10666666666666667,0.05444444444444444,-0.59999999999999998,1.90999999999999992,10.16000000000000014,74.70000000000000284,74.70000000000000284,11.72828169599999981
2.69014930725097656,42.60774149201738936,254.97381820010346587,31.98708114044056217,0.70450903125230180,-0.00196850609392525,0.00325874697744692,0.70968481062781552,-0.02666666666666667,0.10666666666666667,0.05444444444444444,-0.59999999999999998,1.90999999999999992,10.16000000000000014,74.70000000000000284,74.70000000000000284,11.72828169599999981
2.70013642311096191,42.65591731995775859,260.48806357923990618,31.97001634776547974,0.70439804614737367,-0.00192495118505635,0.00325809917161912,0.70979509151337850,-0.02666666666666667,0.10666666666666667,0.05444444444444444,-0.59999999999999998,1.90999999999999992,10.16000000000000014,74.70000000000000284,74.70000000000000284,11.72828169599999981
2.71008729934692383,42.98092923325333459,265.36127491929670441,31.89202321537322504,0.70424939845362555,-0.00188084290410231,0.00348359080632128,0.70994162563042507,0.02000000000000000,0.01888888888888889,0.08777777777777777,-0.78000000000000003,1.30000000000000004,11.08999999999999986,74.70000000000000284,74.70000000000000284,11.72498816000000055
2.72010278701782227,42.95491341416192199,270.91524117386489934,31.90604451427116928,0.70406513303115703,-0.00175858712456476,0.00304526657134207,0.71012669445152787,0.02000000000000000,0.01888888888888889,0.08777777777777777,-0.78000000000000003,1.30000000000000004,11.08999999999999986,74.70000000000000284,74.70000000000000284,11.72498816000000055
2.73013114929199219,42.90474248243486244,275.71661700296385789,31.87121820562280661,0.70377767945045644,-0.00190590121837200,0.00318658092975007,0.71041057927782492,0.02000000000000000,0.01888888888888889,0.08777777777777777,-0.78000000000000003,1.30000000000000004,11.08999999999999986,74.70000000000000284,74.70000000000000284,11.72498816000000055
2.74009704589843750,42.93039504880687218,281.14991714798924249,31.76860608855628598,0.70352213841116895,-0.00197885927157064,0.00323510396211682,0.71066322473005006,0.02000000000000000,0.01888888888888889,0.08777777777777777,-0.78000000000000003,1.30000000000000004,11.08999999999999986,74.70000000000000284,74.70000000000000284,11.72498816000000055
2.75010228157043457,43.17098882914058322,286.12941592232164112,31.81083295892071661,0.70344969943635483,-0.00170554791454310,0.00293717905002291,0.71073693055056730,0.02000000000000000,0.01888888888888889,0.08777777777777777,-0.78000000000000003,1.30000000000000004,11.08999999999999986,74.70000000000000284,74.70000000000000284,11.72498816000000055
2.76005411148071289,43.14234955773077473,291.59528898743252512,31.86932716435538637,0.70338405536793647,-0.00167791701029540,0.00312929887051080,0.71080114148560680,0.02000000000000000,0.01888888888888889,0.08777777777777777,-0.78000000000000003,1.30000000000000004,11.08999999999999986,74.70000000000000284,74.70000000000000284,11.72498816000000055
2.77009558677673340,42.67309391407642494,297.02298185487586579,31.56234249645622469,0.70283648337489468,-0.00120048632813968,0.00388616837181274,0.71133981623776221,-0.00444444444444444,-0.03444444444444444,0.07777777777777778,1.96999999999999997,1.57000000000000006,11.46000000000000085,75.40000000000000568,75.40000000000000568,11.72828169599999981
2.78014731407165527,42.70697908542572208,301.85880465591878874,31.65906051262932763,0.70242427256906859,-0.00188858243780569,0.00317221745802477,0.71174891050045863,-0.00444444444444444,-0.03444444444444444,0.07777777777777778,1.96999999999999997,1.57000000000000006,11.46000000000000085,75.40000000000000568,75.40000000000000568,11.72828169599999981
2.79009199142456055,42.38537496258521031,307.46398792849691972,31.57329686993601214,0.70207090142608031,-0.00100444684473861,0.00374799642731641,0.71209647729790615,-0.00444444444444444,-0.03444444444444444,0.07777777777777778,1.96999999999999997,1.57000000000000006,11.46000000000000085,75.40000000000000568,75.40000000000000568,11.72828169599999981
2.80008196830749512,42.63595074787706807,312.42573984416497979,31.90972855994414559,0.70209326387555149,-0.00049689014011750,0.00358463275956097,0.71207580518421154,0.00444444444444444,-0.05444444444444444,0.06555555555555556,1.01000000000000001,3.79000000000000004,8.41999999999999993,75.40000000000000568,75.40000000000000568,11.70522694399999963
2.81010532379150391,42.44237815622003041,317.66993716680849502,31.76393750241911107,0.70171920156618206,-0.00018865303565423,0.00444502963455558,0.71243972957359691,0.00444444444444444,-0.05444444444444444,0.06555555555555556,1.01000000000000001,3.79000000000000004,8.41999999999999993,75.40000000000000568,75.40000000000000568,11.70522694399999963
2.82008075714111328,42.01930251336895594,323.22872499574299354,31.66395725135632233,0.70137110083683885,-0.00028812511276125,0.00426231163926499,0.71278350752127417,0.00444444444444444,-0.05444444444444444,0.06555555555555556,1.01000000000000001,3.79000000000000004,8.41999999999999993,75.40000000000000568,75.40000000000000568,11.70522694399999963
2.83009934425354004,42.01610493919896072,328.07971332488153848,31.66830087621568168,0.70098059073070107,-0.00070326065791561,0.00426503854748840,0.71316724987163616,0.00444444444444444,-0.05444444444444444,0.06555555555555556,1.01000000000000001,3.79000000000000004,8.41999999999999993,75.40000000000000568,75.40000000000000568,11.70522694399999963
2.84010028839111328,41.90832226430678276,333.69653489490087850,31.69004704241007531,0.70092156031331498,-0.00074635260801604,0.00336388931097673,0.71323004247888777,0.00444444444444444,-0.05444444444444444,0.06555555555555556,1.01000000000000001,3.79000000000000004,8.41999999999999993,75.40000000000000568,75.40000000000000568,11.70522694399999963
2.85009956359863281,42.07510186005887931,338.71908784865632924,31.45819123991370247,0.70108647678323444,-0.00122798880738601,0.00302920633770779,0.71306876808911224,0.00444444444444444,-0.05444444444444444,0.06555555555555556,1.01000000000000001,3.79000000000000004,8.41999999999999993,75.40000000000000568,75.40000000000000568,11.70522694399999963
2.86011695861816406,41.69555870522742680,344.21449038298402456,31.33768157648991703,0.70054802161076546,-0.00129391826180671,0.00309512562505754,0.71359737624947817,-0.00555555555555556,-0.02666666666666667,0.07222222222222222,1.39999999999999991,1.78000000000000003,9.46000000000000085,75.40000000000000568,75.40000000000000568,11.73157523200000085
2.87010383605957031,41.39883853553889281,349.67461318690646976,31.37166067948881221,0.70011747494969134,-0.00099899793984349,0.00322601191555905,0.71401968888841227,-0.00555555555555556,-0.02666666666666667,0.07222222222222222,1.39999999999999991,1.78000000000000003,9.46000000000000085,75.40000000000000568,75.40000000000000568,11.73157523200000085
2.88014793395996094,41.47710429771594676,354.66161660407988165,31.36750740177807018,0.69981655740474891,-0.00124403203211091,0.00299116379870370,0.71431526044569349,-0.00555555555555556,-0.02666666666666667,0.07222222222222222,1.39999999999999991,1.78000000000000003,9.46000000000000085,75.40000000000000568,75.40000000000000568,11.73157523200000085
2.89009952545166016,41.99476205172586418,360.17979219949330627,31.47546356996278760,0.70000961207441459,-0.00177798017332253,0.00207967816034159,0.71412817948088314,-0.00555555555555556,-0.02666666666666667,0.07222222222222222,1.39999999999999991,1.78000000000000003,9.46000000000000085,75.40000000000000568,75.40000000000000568,11.73157523200000085
2.90010309219360352,41.84536973706222085,365.08357599471855792,31.44760485173073405,0.69961147942093760,-0.00174531230379632,0.00247554785510382,0.71451704207123479,-0.00555555555555556,-0.02666666666666667,0.07222222222222222,1.39999999999999991,1.78000000000000003,9.46000000000000085,75.40000000000000568,75.40000000000000568,11.73157523200000085
2.91009974479675293,41.26904947686710301,370.37888173675247572,31.07883264148609115,0.69889677044775567,-0.00147714136931098,0.00350746666361701,0.71521242997355383,0.06444444444444444,-0.02555555555555556,0.09444444444444444,-0.50000000000000000,1.45999999999999996,11.48000000000000043,76.09999999999999432,76.09999999999999432,11.70852048000000067
2.92007994651794434,41.17798350600090629,375.95665798135149771,31.02329722158236791,0.69865823722821063,-0.00162801943033693,0.00371590561460818,0.71544406430647456,0.06444444444444444,-0.02555555555555556,0.09444444444444444,-0.50000000000000000,1.45999999999999996,11.48000000000000043,76.09999999999999432,76.09999999999999432,11.70852048000000067
2.93011426925659180,41.34030798421366626,380.92516628479978635,31.07349048318893026,0.69858082867706295,-0.00161081216523204,0.00328355079225954,0.71552180217183514,0.06444444444444444,-0.02555555555555556,0.09444444444444444,-0.50000000000000000,1.45999999999999996,11.48000000000000043,76.09999999999999432,76.09999999999999432,11.70852048000000067
2.94009256362915039,41.12021896574488267,386.43370446606576252,31.02805844670048430,0.69848894724929278,-0.00123334566721715,0.00415897353991451,0.71560769445844707,0.06444444444444444,-0.02555555555555556,0.09444444444444444,-0.50000000000000000,1.45999999999999996,11.48000000000000043,76.09999999999999432,76.09999999999999432,11.70852048000000067
2.95009827613830566,40.64860605710190811,391.35473289182056078,30.73213304435766702,0.69785713708646169,-0.00106761629621761,0.00495091497777563,0.71621907601921186,0.06444444444444444,-0.02555555555555556,0.09444444444444444,-0.50000000000000000,1.45999999999999996,11.48000000000000043,76.09999999999999432,76.09999999999999432,11.70852048000000067
2.96008753776550293,40.49581761336192898,396.75317251766392701,30.65950074521352064,0.69748236640878802,-0.00132602000318296,0.00515785586323841,0.71658215631052524,-0.25666666666666665,0.05666666666666666,0.07222222222222222,-2.31000000000000005,1.82000000000000006,11.89000000000000057,76.09999999999999432,76.09999999999999432,11.71840108800000024
2.97006511688232422,40.73296711125167491,402.56186804244435962,31.03793631899966954,0.69739275683262558,-0.00148633592062707,0.00403729932147639,0.71667624052783441,-0.25666666666666665,0.05666666666666666,0.07222222222222222,-2.31000000000000005,1.82000000000000006,11.89000000000000057,76.09999999999999432,76.09999999999999432,11.71840108800000024
2.98015975952148438,40.35056567459540844,407.46402322855902867,30.81240707591287631,0.69699986525132207,-0.00126279205126204,0.00432125374159341,0.71705712461558813,-0.25666666666666665,0.05666666666666666,0.07222222222222222,-2.31000000000000005,1.82000000000000006,11.89000000000000057,76.09999999999999432,76.09999999999999432,11.71840108800000024
2.99012088775634766,40.15857354757033448,413.19961693430394689,30.99867941711159958,0.69659721960824661,-0.00094497457311160,0.00425305721089088,0.71744918437578353,-0.25666666666666665,0.05666666666666666,0.07222222222222222,-2.31000000000000005,1.82000000000000006,11.89000000000000057,76.09999999999999432,76.09999999999999432,11.71840108800000024
3.00010943412780762,39.97421731139188950,418.00568434417749586,30.96758475069454519,0.69635240710520652,-0.00112006463518460,0.00430421277399472,0.71768624365135680,-0.25666666666666665,0.05666666666666666,0.07222222222222222,-2.31000000000000005,1.82000000000000006,11.89000000000000057,76.09999999999999432,76.09999999999999432,11.71840108800000024
3.01010131835937500,40.20474406582209781,423.71976200424364833,31.03107074779628149,0.69650270298921546,-0.00140695262603894,0.00358806247529901,0.71754381818861634,-0.07111111111111111,-0.01666666666666667,0.07111111111111111,-2.60999999999999988,2.31999999999999984,5.84999999999999964,76.90000000000000568,76.90000000000000568,11.72498816000000055
3.02010464668273926,39.68383560462237369,429.10063070566576471,30.89596947114442571,0.69600865474006435,-0.00103937887713383,0.00456696758644350,0.71801811608450372,-0.07111111111111111,-0.01666666666666667,0.07111111111111111,-2.60999999999999988,2.31999999999999984,5.84999999999999964,76.90000000000000568,76.90000000000000568,11.72498816000000055
3.03012275695800781,39.51180946014014239,434.09818698641538504,30.98916343382211025,0.69564047261401041,-0.00096127116597652,0.00406022991425265,0.71837798083748738,-0.07111111111111111,-0.01666666666666667,0.07111111111111111,-2.60999999999999988,2.31999999999999984,5.84999999999999964,76.90000000000000568,76.90000000000000568,11.72498816000000055
3.04010033607482910,39.40536304989567640,439.53919904510644301,30.94440615880727208,0.69541823229987687,-0.00094340622520209,0.00449181056081282,0.71859057592449294,-0.07111111111111111,-0.01666666666666667,0.07111111111111111,-2.60999999999999988,2.31999999999999984,5.84999999999999964,76.90000000000000568,76.90000000000000568,11.72498816000000055
3.05009531974792480,39.44735082592310249,444.62657592532315221,30.90164697775369973,0.69546762548343688,-0.00077297330773069,0.00412279628211179,0.71854518783964527,-0.07111111111111111,-0.01666666666666667,0.07111111111111111,-2.60999999999999988,2.31999999999999984,5.84999999999999964,76.90000000000000568,76.90000000000000568,11.72498816000000055
3.06009912490844727,39.22946634483562178,450.20728808872263471,30.83500503881903754,0.69523927881818071,-0.00093081614095566,0.00413261989825318,0.71876588693569998,-0.00444444444444444,-0.02777777777777778,0.08111111111111111,0.77000000000000002,1.44999999999999996,7.91999999999999993,76.90000000000000568,76.90000000000000568,11.71840108800000024
3.07012891769409180,38.66005789110864299,455.71169788324397132,30.93367442773498865,0.69458000964063826,-0.00085791121585986,0.00371951306960194,0.71940533735751611,-0.00444444444444444,-0.02777777777777778,0.08111111111111111,0.77000000000000002,1.44999999999999996,7.91999999999999993,76.90000000000000568,76.90000000000000568,11.71840108800000024
3.08013081550598145,38.32626192154136646,460.76542922112849965,30.90574984873313724,0.69424924943873112,-0.00080322126702317,0.00435226629827369,0.71972105170505019,-0.00444444444444444,-0.02777777777777778,0.08111111111111111,0.77000000000000002,1.44999999999999996,7.91999999999999993,76.90000000000000568,76.90000000000000568,11.71840108800000024
3.09009909629821777,38.61869126519790285,466.56397687316143674,31.12401547415182890,0.69426392924074398,-0.00112783643985122,0.00330666246134956,0.71971201916011829,-0.00444444444444444,-0.02777777777777778,0.08111111111111111,0.77000000000000002,1.44999999999999996,7.91999999999999993,76.90000000000000568,76.90000000000000568,11.71840108800000024
3.10011768341064453,38.47111783672219332,471.50216834815381617,31.04090028902610143,0.69409612356649586,-0.00111311139356866,0.00345881854228379,0.71987316161062798,-0.00444444444444444,-0.02777777777777778,0.08111111111111111,0.77000000000000002,1.44999999999999996,7.91999999999999993,76.90000000000000568,76.90000000000000568,11.71840108800000024
3.11005544662475586,38.03162574628092329,476.96857061948520595,30.97126570184318339,0.69342086526940272,-0.00129414704689581,0.00372175328423557,0.72052201725203724,0.00555555555555556,-0.01444444444444444,0.07444444444444444,0.07000000000000001,2.12999999999999989,8.11999999999999922,78.40000000000000568,78.40000000000000568,11.73157523200000085
3.12004852294921875,37.94099248984183959,482.67686192727393291,31.19382629288528008,0.69325764315778415,-0.00089915968192293,0.00319237171332091,0.72068220491283452,0.00555555555555556,-0.01444444444444444,0.07444444444444444,0.07000000000000001,2.12999999999999989,8.11999999999999922,78.40000000000000568,78.40000000000000568,11.73157523200000085
3.13008403778076172,38.16099956903289581,487.75163083121742602,31.40972388074773036,0.69322231986381233,-0.00097780756602261,0.00294535831496906,0.72071713175100427,0.00555555555555556,-0.01444444444444444,0.07444444444444444,0.07000000000000001,2.12999999999999989,8.11999999999999922,78.40000000000000568,78.40000000000000568,11.73157523200000085
3.14004850387573242,37.67278132271285784,493.34139293871385235,31.26910369319410776,0.69286641167191909,-0.00031259341669362,0.00374434680730116,0.72105618208931643,0.00555555555555556,-0.01444444444444444,0.07444444444444444,0.07000000000000001,2.12999999999999989,8.11999999999999922,78.40000000000000568,78.40000000000000568,11.73157523200000085
3.15008091926574707,37.21646957355850560,498.36307843193389999,31.03513636877449144,0.69227952729304021,-0.00057414768331341,0.00410137499679202,0.72161756157156975,0.00555555555555556,-0.01444444444444444,0.07444444444444444,0.07000000000000001,2.12999999999999989,8.11999999999999922,78.40000000000000568,78.40000000000000568,11.73157523200000085
3.16007041931152344,37.19425150936103108,504.08474324016657420,31.02925684946847085,0.69198204230467730,-0.00141912403643652,0.00326738657149092,0.72190592420329180,0.03000000000000000,-0.03777777777777778,0.09555555555555556,2.00999999999999979,0.40999999999999998,10.49000000000000021,78.40000000000000568,78.40000000000000568,11.71840108800000024
3.17004871368408203,37.39263849707652554,509.84926631093088645,31.16108725775086796,0.69212283381873729,-0.00186296381311960,0.00239186840539710,0.72177336556434590,0.03000000000000000,-0.03777777777777778,0.09555555555555556,2.00999999999999979,0.40999999999999998,10.49000000000000021,78.40000000000000568,78.40000000000000568,11.71840108800000024
3.18010854721069336,36.45939075268012886,514.76663511852268584,30.99015250868201932,0.69143222518534209,-0.00110489006963928,0.00388768665556431,0.72243002642861454,0.03000000000000000,-0.03777777777777778,0.09555555555555556,2.00999999999999979,0.40999999999999998,10.49000000000000021,78.40000000000000568,78.40000000000000568,11.71840108800000024
3.19009304046630859,36.24456133911539268,520.56449578380386356,30.91917406948645919,0.69115147191126758,-0.00121632706965691,0.00349957321108112,0.72270043338210943,0.03000000000000000,-0.03777777777777778,0.09555555555555556,2.00999999999999979,0.40999999999999998,10.49000000000000021,78.40000000000000568,78.40000000000000568,11.71840108800000024
3.20007896423339844,36.25151293171452238,525.71546430300111297,31.25612508309411908,0.69091460130115412,-0.00132806004059348,0.00298140104337938,0.72292901533498732,0.03000000000000000,-0.03777777777777778,0.09555555555555556,2.00999999999999979,0.40999999999999998,10.49000000000000021,78.40000000000000568,78.40000000000000568,11.71840108800000024
3.21009683609008789,35.62479243935889173,531.38924960636416017,31.10253220884692738,0.69030361581310684,-0.00121216711052694,0.00335503402242654,0.72351101746480329,0.03000000000000000,-0.03777777777777778,0.09555555555555556,2.00999999999999979,0.40999999999999998,10.49000000000000021,78.40000000000000568,78.40000000000000568,11.71840108800000024
3.22004818916320801,35.58017564064560645,537.03083854265344144,30.98147268480282790,0.69010766995443007,-0.00200788039296956,0.00340874142477017,0.72369589799051248,-0.02111111111111111,0.07000000000000001,0.08000000000000000,-1.34000000000000008,2.18999999999999995,11.65000000000000036,78.40000000000000568,78.40000000000000568,11.72498816000000055
3.23008418083190918,35.17066438017992169,542.16974243757374552,31.05079972320322668,0.68966457383104462,-0.00180041402643955,0.00361924347999457,0.72411769429313710,-0.02111111111111111,0.07000000000000001,0.08000000000000000,-1.34000000000000008,2.18999999999999995,11.65000000000000036,78.40000000000000568,78.40000000000000568,11.72498816000000055
3.24010157585144043,35.18235345051687801,548.10497695136598395,31.10957657648777186,0.68955384848094992,-0.00224205551576769,0.00271206170664801,0.72422586805048228,-0.02111111111111111,0.07000000000000001,0.08000000000000000,-1.34000000000000008,2.18999999999999995,11.65000000000000036,78.40000000000000568,78.40000000000000568,11.72498816000000055
3.25009894371032715,34.62222248260675883,553.14762432347959020,31.12481543304549447,0.68898871934208228,-0.00197295635993680,0.00321456755485091,0.72476224971917158,0.00555555555555556,0.04333333333333333,0.09222222222222222,-1.51000000000000001,1.33000000000000007,12.50999999999999979,78.40000000000000568,78.40000000000000568,11.69534633600000006
3.26007223129272461,34.65691047668982350,558.82299689934791331,30.84923276066044195,0.68908739453715651,-0.00243316787868155,0.00297191081378513,0.72466806893237856,0.00555555555555556,0.04333333333333333,0.09222222222222222,-1.51000000000000001,1.33000000000000007,12.50999999999999979,78.40000000000000568,78.40000000000000568,11.69534633600000006
3.27004885673522949,34.13559143078042268,564.56923037841613677,31.14940944024375469,0.68861917869446565,-0.00146263189520468,0.00317590669291943,0.72511475026976002,0.00555555555555556,0.04333333333333333,0.09222222222222222,-1.51000000000000001,1.33000000000000007,12.50999999999999979,78.40000000000000568,78.40000000000000568,11.69534633600000006
3.28009772300720215,33.58588837453770992,569.59379102069988221,30.92482073046209123,0.68815328244793117,-0.00146198776208199,0.00378675332379043,0.72555398348240496,0.00555555555555556,0.04333333333333333,0.09222222222222222,-1.51000000000000001,1.33000000000000007,12.50999999999999979,78.40000000000000568,78.40000000000000568,11.69534633600000006
3.29007697105407715,33.35224799732149137,575.41396907627279234,31.00390951867144906,0.68784419628636262,-0.00191484869286045,0.00295262270977458,0.72584983089395627,0.00555555555555556,0.04333333333333333,0.09222222222222222,-1.51000000000000001,1.33000000000000007,12.50999999999999979,78.40000000000000568,78.40000000000000568,11.69534633600000006
3.30010151863098145,33.39584496123863033,580.58848718627211838,31.15832694191684382,0.68766260670396251,-0.00207918676715513,0.00244191011441737,0.72602331463837411,0.00555555555555556,0.04333333333333333,0.09222222222222222,-1.51000000000000001,1.33000000000000007,12.50999999999999979,78.40000000000000568,78.40000000000000568,11.69534633600000006
3.31007480621337891,33.22205724714936537,586.37405949856736243,31.13254215844899875,0.68751283574096111,-0.00213450231182394,0.00216508155657509,0.72616586053955745,0.00555555555555556,0.04333333333333333,0.09222222222222222,-1.51000000000000001,1.33000000000000007,12.50999999999999979,78.40000000000000568,78.40000000000000568,11.69534633600000006
3.32004857063293457,32.50993487652564085,592.03959621284502646,31.11257625993366105,0.68697382156060260,-0.00178819459773077,0.00273454554947028,0.72667481937324585,-0.06000000000000000,0.27888888888888891,0.08555555555555555,-1.35000000000000009,1.93999999999999995,10.74000000000000021,78.40000000000000568,78.40000000000000568,11.72169462400000128
3.33007335662841797,32.24179548198495127,597.20989617258146609,31.10945918087083939,0.68673481745074560,-0.00157275356460499,0.00257145945356419,0.72690178466103295,-0.06000000000000000,0.27888888888888891,0.08555555555555555,-1.35000000000000009,1.93999999999999995,10.74000000000000021,78.40000000000000568,78.40000000000000568,11.72169462400000128
3.34009909629821777,32.01742621817638224,602.92539764252626355,31.17184896843613373,0.68642704416099676,-0.00158104439113760,0.00234305962322363,0.72719318163376079,-0.06000000000000000,0.27888888888888891,0.08555555555555555,-1.35000000000000009,1.93999999999999995,10.74000000000000021,78.40000000000000568,78.40000000000000568,11.72169462400000128
3.35014629364013672,31.68784207632630867,607.93161644951862854,31.15194636822121410,0.68597746537717674,-0.00133129704379403,0.00258453748774325,0.72761697671842418,-0.06000000000000000,0.27888888888888891,0.08555555555555555,-1.35000000000000009,1.93999999999999995,10.74000000000000021,78.40000000000000568,78.40000000000000568,11.72169462400000128
3.36014842987060547,31.50860658975853212,613.64954277735341748,31.14439417276275890,0.68556044041372144,-0.00159532671218451,0.00232653927855332,0.72801025039995892,-0.06000000000000000,-0.04444444444444445,0.09111111111111111,0.64000000000000001,1.53000000000000003,9.56000000000000050,78.40000000000000568,78.40000000000000568,11.70193340800000037
3.37013339996337891,31.61201003347437677,618.92773355818110304,31.19922448978515206,0.68564171354538361,-0.00204480714916010,0.00149966206488869,0.72793475698304433,-0.06000000000000000,-0.04444444444444445,0.09111111111111111,0.64000000000000001,1.53000000000000003,9.56000000000000050,78.40000000000000568,78.40000000000000568,11.70193340800000037
3.38011860847473145,30.88844712629732214,624.46674851379509619,30.82996883514829278,0.68513067362303903,-0.00167428637679723,0.00273445285884103,0.72841312425953186,-0.06000000000000000,-0.04444444444444445,0.09111111111111111,0.64000000000000001,1.53000000000000003,9.56000000000000050,78.40000000000000568,78.40000000000000568,11.70193340800000037
3.39012098312377930,30.37014191146588971,630.17157774538782178,30.65268002059414698,0.68461119956669880,-0.00170990327997298,0.00287084884536438,0.72890077506168516,-0.06000000000000000,-0.04444444444444445,0.09111111111111111,0.64000000000000001,1.53000000000000003,9.56000000000000050,78.40000000000000568,78.40000000000000568,11.70193340800000037
3.40030884742736816,30.14805711821796308,635.90579855903990847,30.81756907606164120,0.68442207253805343,-0.00169893170437352,0.00261468103608344,0.72907935349786135,-0.06000000000000000,-0.04444444444444445,0.09111111111111111,0.64000000000000001,1.53000000000000003,9.56000000000000050,78.40000000000000568,78.40000000000000568,11.70193340800000037
3.41015148162841797,29.60786319575321102,641.00309290994664480,30.91205227966925762,0.68392557883659766,-0.00123355514243595,0.00298687495526000,0.72954462477132764,-0.08000000000000000,-0.06222222222222222,0.08888888888888889,-0.67000000000000004,2.29999999999999982,14.58000000000000007,78.40000000000000568,78.40000000000000568,11.72498816000000055
3.42014384269714355,29.39360406044884044,646.60083841899358958,30.69274466550163538,0.68348404457004297,-0.00243070625279627,0.00211285855047103,0.72995834697195827,-0.08000000000000000,-0.06222222222222222,0.08888888888888889,-0.67000000000000004,2.29999999999999982,14.58000000000000007,78.40000000000000568,78.40000000000000568,11.72498816000000055
3.43010616302490234,28.96632812255103318,651.86313475580072918,31.10772527168502322,0.68298801430770528,-0.00212169158594058,0.00149137741749998,0.73042497666100570,-0.08000000000000000,-0.06222222222222222,0.08888888888888889,-0.67000000000000004,2.29999999999999982,14.58000000000000007,78.40000000000000568,78.40000000000000568,11.72498816000000055
