t,x,y,z,q0,q1,q2,q3,wx,wy,wz,ax,ay,az,dutyR,dutyL,Vbatt
0.00000000000000000,-100.17654754380687621,121.42483063567478041,31.71982512044337099,0.10438609749014452,-0.64908081232952131,0.60209034785033722,0.45308371714496731,0.00000000000000000,0.00000000000000000,0.00000000000000000,0.00000000000000000,0.00000000000000000,0.00000000000000000,0.00000000000000000,0.00000000000000000,0.00000000000000000
0.01016902923583984,-100.17654754380687621,121.42483063567478041,31.71982512044337099,0.67490283747661795,-0.00336590738785454,0.00288061429011533,0.73789330712154955,0.00000000000000000,0.00000000000000000,0.00000000000000000,0.00000000000000000,0.00000000000000000,0.00000000000000000,0.00000000000000000,0.00000000000000000,0.00000000000000000
0.02004909515380859,-100.15371609829219324,121.39259622307542941,31.73193157657144070,0.67488727084716982,-0.00345926373943459,0.00283904355891964,0.73790727396774602,0.00000000000000000,0.00000000000000000,0.00000000000000000,0.00000000000000000,0.00000000000000000,0.00000000000000000,0.00000000000000000,0.00000000000000000,0.00000000000000000
0.03001260757446289,-100.15288083453755519,121.37873820615540410,31.71082470827082389,0.67487320525543804,-0.00346125151198804,0.00283295689290114,0.73792015213128936,0.00000000000000000,0.00000000000000000,0.00000000000000000,0.00000000000000000,0.00000000000000000,0.00000000000000000,0.00000000000000000,0.00000000000000000,0.00000000000000000
0.03997921943664551,-100.17684705369730125,121.39194696439692223,31.70845330871472356,0.67482996357483449,-0.00342673595192728,0.00285746307718752,0.73795976356917037,0.00000000000000000,0.00000000000000000,0.00000000000000000,0.00000000000000000,0.00000000000000000,0.00000000000000000,0.00000000000000000,0.00000000000000000,0.00000000000000000
0.05001330375671387,-100.13281023046890539,121.39042202404458237,31.73642563384711934,0.67493254514602319,-0.00350696597104278,0.00278580778817985,0.73786584144230249,0.00000000000000000,0.00000000000000000,0.00000000000000000,0.00000000000000000,0.00000000000000000,0.00000000000000000,0.00000000000000000,0.00000000000000000,0.00000000000000000
0.05999875068664551,-100.19491611699105249,121.39635363931817835,31.70502000059401837,0.67491332047100661,-0.00339711537465383,0.00293267300565417,0.73788337078902455,0.00000000000000000,0.00000000000000000,0.00000000000000000,0.00000000000000000,0.00000000000000000,0.00000000000000000,0.00000000000000000,0.00000000000000000,0.00000000000000000
0.07002282142639160,-100.16035031392307530,121.38287468254810619,31.73039243927670228,0.67487507607674124,-0.00342778970361276,0.00283999205179229,0.73791857029980346,0.00000000000000000,0.00000000000000000,0.00000000000000000,0.00000000000000000,0.00000000000000000,0.00000000000000000,0.00000000000000000,0.00000000000000000,0.00000000000000000
0.08001852035522461,-100.17357005273500192,121.36111761004974596,31.73073196784051220,0.67488903327493666,-0.00340091935470368,0.00291204905178461,0.73790564876756726,0.00000000000000000,-0.00333333333333333,-0.00111111111111111,-0.17000000000000001,1.83000000000000007,9.58000000000000007,0.00000000000000000,0.00000000000000000,11.71181401599999994
0.08997654914855957,-100.15716454125515611,121.38162039562155314,31.72985035350259508,0.67486633104253424,-0.00342922867141282,0.00279992805919622,0.73792671453117309,0.00000000000000000,-0.00333333333333333,-0.00111111111111111,-0.17000000000000001,1.83000000000000007,9.58000000000000007,0.00000000000000000,0.00000000000000000,11.71181401599999994
0.10001611709594727,-100.13922806361684081,121.40242373976535362,31.76447372727907847,0.67494118382009993,-0.00344986210544280,0.00275874403993209,0.73785831035931115,-0.00111111111111111,0.28000000000000003,-0.00000000000000000,-0.17999999999999999,1.82000000000000006,9.61999999999999922,0.00000000000000000,0.00000000000000000,11.68875926399999976
0.11000871658325195,-100.11207643306495640,121.39272573285779799,31.73268501962229848,0.67497741685118806,-0.00344219917203662,0.00280652916719973,0.73782502085507429,-0.00111111111111111,0.28000000000000003,-0.00000000000000000,-0.17999999999999999,1.82000000000000006,9.61999999999999922,0.00000000000000000,0.00000000000000000,11.68875926399999976
0.12001490592956543,-100.15344991455451407,121.38360537800224392,31.72498848709969366,0.67488551369499539,-0.00344404937258251,0.00283871567544094,0.73790895347723973,-0.00111111111111111,0.28000000000000003,-0.00000000000000000,-0.17999999999999999,1.82000000000000006,9.61999999999999922,0.00000000000000000,0.00000000000000000,11.68875926399999976
0.13001418113708496,-100.12964842130288901,121.38848490255192303,31.74102953876576194,0.67488407139611262,-0.00344548562707542,0.00276241496960648,0.73791055546599671,-0.00111111111111111,0.28000000000000003,-0.00000000000000000,-0.17999999999999999,1.82000000000000006,9.61999999999999922,0.00000000000000000,0.00000000000000000,11.68875926399999976
0.14001893997192383,-100.14894571453400829,121.39520199457221850,31.72488248970484292,0.67487431527641761,-0.00343439297883621,0.00280869166414470,0.73791935519824214,-0.00111111111111111,0.28000000000000003,-0.00000000000000000,-0.17999999999999999,1.82000000000000006,9.61999999999999922,0.00000000000000000,0.00000000000000000,11.68875926399999976
0.15004539489746094,-100.11355435049399887,121.41779112599083135,31.75499882359326520,0.67495594877514020,-0.00340797516338022,0.00276797056635293,0.73784496424200108,-0.00111111111111111,-0.00111111111111111,-0.00111111111111111,-0.16000000000000000,1.84000000000000008,9.59999999999999964,0.00000000000000000,0.00000000000000000,11.71181401599999994
0.16001772880554199,-100.15514293137658797,121.42302190737495948,31.73202341117917413,0.67495695312887316,-0.00334921643654893,0.00286645886888185,0.73784393850312446,-0.00111111111111111,-0.00111111111111111,-0.00111111111111111,-0.16000000000000000,1.84000000000000008,9.59999999999999964,0.00000000000000000,0.00000000000000000,11.71181401599999994
0.17002129554748535,-100.12724775252191023,121.38978280482247385,31.73954527198155162,0.67495528319798981,-0.00346372407830729,0.00282003419569867,0.73784511633930783,-0.00111111111111111,-0.00111111111111111,-0.00111111111111111,-0.16000000000000000,1.84000000000000008,9.59999999999999964,0.00000000000000000,0.00000000000000000,11.71181401599999994
0.18006587028503418,-100.09129167432065799,121.38846677595573453,31.75407757070815862,0.67495931537622111,-0.00346467257693002,0.00273662830279140,0.73784173743176795,-0.00111111111111111,-0.00111111111111111,-0.00111111111111111,-0.16000000000000000,1.84000000000000008,9.59999999999999964,0.00000000000000000,0.00000000000000000,11.71181401599999994
0.19002199172973633,-100.18975018773805630,121.38531566499118242,31.70298960055302118,0.67488103804584609,-0.00341412313854851,0.00287432801534024,0.73791304805364177,-0.00111111111111111,-0.00111111111111111,-0.00111111111111111,-0.16000000000000000,1.84000000000000008,9.59999999999999964,0.00000000000000000,0.00000000000000000,11.71181401599999994
0.19995093345642090,-100.11549929612188237,121.42633287499786832,31.73993706693451600,0.67496958274161234,-0.00342689557762146,0.00277702875978956,0.73783237044167516,-0.00111111111111111,-0.00111111111111111,-0.00111111111111111,-0.16000000000000000,1.84000000000000008,9.59999999999999964,0.00000000000000000,0.00000000000000000,11.71181401599999994
0.20999789237976074,-100.11881096219241272,121.39880436322907542,31.73466451747658823,0.67496775584457835,-0.00342891506205921,0.00282024909249187,0.73783386836515374,0.00222222222222222,-0.00000000000000000,-0.00000000000000000,-0.17000000000000001,1.83000000000000007,9.58999999999999986,0.00000000000000000,0.00000000000000000,11.70852048000000067
0.22003149986267090,-100.10764593159500180,121.39640619337370708,31.75726100805049512,0.67493999942012495,-0.00348663839417631,0.00271996475963511,0.73785936487055304,0.00222222222222222,-0.00000000000000000,-0.00000000000000000,-0.17000000000000001,1.83000000000000007,9.58999999999999986,0.00000000000000000,0.00000000000000000,11.70852048000000067
0.23003482818603516,-100.14674219007538625,121.38760087634362606,31.74098604719947403,0.67491607408917165,-0.00344948155918050,0.00280206400505385,0.73788111674601353,0.00222222222222222,-0.00000000000000000,-0.00000000000000000,-0.17000000000000001,1.83000000000000007,9.58999999999999986,0.00000000000000000,0.00000000000000000,11.70852048000000067
0.24002122879028320,-100.13954466643808416,121.37358392003983454,31.73049335800210713,0.67489860377419797,-0.00348668220541267,0.00280751868211853,0.73789690032530009,0.00222222222222222,-0.00000000000000000,-0.00000000000000000,-0.17000000000000001,1.83000000000000007,9.58999999999999986,0.00000000000000000,0.00000000000000000,11.70852048000000067
0.25003528594970703,-100.13510330128563908,121.42017846596706931,31.76760272826313170,0.67494674023893986,-0.00339717672614380,0.00277203008521143,0.73785342235455331,-0.00222222222222222,-0.00222222222222222,0.00111111111111111,-0.16000000000000000,1.83000000000000007,9.63000000000000078,0.00000000000000000,0.00000000000000000,11.69863987200000111
0.26001954078674316,-100.12707086095474551,121.41252336580430438,31.75212517667327461,0.67495464760189772,-0.00331898053005132,0.00288961036226174,0.73784609384396260,-0.00222222222222222,-0.00222222222222222,0.00111111111111111,-0.16000000000000000,1.83000000000000007,9.63000000000000078,0.00000000000000000,0.00000000000000000,11.69863987200000111
0.27004814147949219,-100.13459753561460275,121.42576994575365745,31.71230697455563430,0.67494033696609634,-0.00342603708980722,0.00279045349629713,0.73785907677227669,-0.00222222222222222,-0.00222222222222222,0.00111111111111111,-0.16000000000000000,1.83000000000000007,9.63000000000000078,0.00000000000000000,0.00000000000000000,11.69863987200000111
0.28005051612854004,-100.11516032922092734,121.38452424931107032,31.73476762826268427,0.67491955435542295,-0.00347589965020364,0.00281552255555029,0.73787775823847523,-0.00222222222222222,-0.00222222222222222,0.00111111111111111,-0.16000000000000000,1.83000000000000007,9.63000000000000078,0.00000000000000000,0.00000000000000000,11.69863987200000111
0.29001927375793457,-100.13710990725424210,121.39215794715335051,31.73560474622058436,0.67492580326302765,-0.00340977127046766,0.00281411922955194,0.73787235636158743,-0.00222222222222222,-0.00222222222222222,0.00111111111111111,-0.16000000000000000,1.83000000000000007,9.63000000000000078,0.00000000000000000,0.00000000000000000,11.69863987200000111
0.30002021789550781,-100.15321730455502802,121.39870591594613813,31.73222083515694791,0.67493921761430353,-0.00347385357042910,0.00288757291382174,0.73785950342204765,-0.00222222222222222,-0.00222222222222222,0.00111111111111111,-0.16000000000000000,1.83000000000000007,9.63000000000000078,0.00000000000000000,0.00000000000000000,11.69863987200000111
0.31001925468444824,-100.14619372702816236,121.41013733635558935,31.72158438540830261,0.67494527718530328,-0.00338286077861503,0.00285161653089655,0.73785452315572875,0.00111111111111111,-0.00000000000000000,-0.00111111111111111,-0.16000000000000000,1.83000000000000007,9.58999999999999986,0.00000000000000000,0.00000000000000000,11.71840108800000024
0.32004523277282715,-100.12490085714050281,121.39975043516362518,31.73781727104078598,0.67490043693676427,-0.00344009662222507,0.00276324303228645,0.73789560945010302,0.00111111111111111,-0.00000000000000000,-0.00111111111111111,-0.16000000000000000,1.83000000000000007,9.58999999999999986,0.00000000000000000,0.00000000000000000,11.71840108800000024
0.33003354072570801,-100.11764280212473466,121.37331372804321461,31.73840480015600107,0.67495351593583597,-0.00349414878736468,0.00279072271055691,0.73784670095952709,0.00111111111111111,-0.00000000000000000,-0.00111111111111111,-0.16000000000000000,1.83000000000000007,9.58999999999999986,0.00000000000000000,0.00000000000000000,11.71840108800000024
0.34001922607421875,-100.11958295692021181,121.38305741823673145,31.74843446988805340,0.67493353369798637,-0.00347883926091523,0.00275296126926637,0.73786519363064940,0.00111111111111111,-0.00000000000000000,-0.00111111111111111,-0.16000000000000000,1.83000000000000007,9.58999999999999986,0.00000000000000000,0.00000000000000000,11.71840108800000024
0.35005807876586914,-100.08276726722804995,121.41125775811194387,31.80169558509160410,0.67493560157253329,-0.00354981954926678,0.00252762215030507,0.73786377037862183,0.00111111111111111,-0.00000000000000000,-0.00111111111111111,-0.16000000000000000,1.83000000000000007,9.58999999999999986,0.00000000000000000,0.00000000000000000,11.71840108800000024
0.36002135276794434,-100.17920799625157713,121.42252815755603024,31.73609078474609291,0.67492354225826356,-0.00331884530866344,0.00288834876564172,0.73787455221926646,0.00111111111111111,-0.00000000000000000,-0.00000000000000000,-0.16000000000000000,1.82000000000000006,9.58000000000000007,0.00000000000000000,0.00000000000000000,11.71840108800000024
0.37004280090332031,-100.12274059488362354,121.43520312642351655,31.73501907370058461,0.67493551445698918,-0.00340431038833466,0.00273460617478032,0.73786379767849342,0.00111111111111111,-0.00000000000000000,-0.00000000000000000,-0.16000000000000000,1.82000000000000006,9.58000000000000007,0.00000000000000000,0.00000000000000000,11.71840108800000024
0.38005542755126953,-100.14479812412491810,121.37056380547049628,31.71824583614737492,0.67486494883021597,-0.00345973053375017,0.00281700596476028,0.73792777125028863,0.00111111111111111,-0.00000000000000000,-0.00000000000000000,-0.16000000000000000,1.82000000000000006,9.58000000000000007,0.00000000000000000,0.00000000000000000,11.71840108800000024
0.39004802703857422,-100.17433419359055335,121.38810777611548986,31.73023132744159724,0.67491521810519761,-0.00338695326047684,0.00284376820346805,0.73788202979882200,0.00111111111111111,-0.00000000000000000,-0.00000000000000000,-0.16000000000000000,1.82000000000000006,9.58000000000000007,0.00000000000000000,0.00000000000000000,11.71840108800000024
0.40001893043518066,-100.14104959700735265,121.38716022422977403,31.73029842315382965,0.67493207487567131,-0.00347043288255663,0.00283684826785958,0.73786624986614890,0.00111111111111111,0.00111111111111111,-0.00000000000000000,-0.17999999999999999,1.82000000000000006,9.60999999999999943,0.00000000000000000,0.00000000000000000,11.71181401599999994
0.41001915931701660,-100.13212534248616237,121.38534314762181054,31.72723298303398565,0.67496557234139820,-0.00340700796081106,0.00285483728218720,0.73783583428476573,0.00111111111111111,0.00111111111111111,-0.00000000000000000,-0.17999999999999999,1.82000000000000006,9.60999999999999943,0.00000000000000000,0.00000000000000000,11.71181401599999994
0.42002367973327637,-100.09204858902832314,121.40937363444733421,31.78046169197288506,0.67491218522060770,-0.00354775543921089,0.00248133154966637,0.73788535604511651,0.00111111111111111,0.00111111111111111,-0.00000000000000000,-0.17999999999999999,1.82000000000000006,9.60999999999999943,0.00000000000000000,0.00000000000000000,11.71181401599999994
0.43013691902160645,-100.14689565671666571,121.40307511497307758,31.72624936418896269,0.67491387141279979,-0.00344706161760715,0.00281054835545859,0.73788311049835875,0.00111111111111111,0.00111111111111111,-0.00000000000000000,-0.17999999999999999,1.82000000000000006,9.60999999999999943,0.00000000000000000,0.00000000000000000,11.71181401599999994
0.44002032279968262,-100.09248418598674846,121.43522094395058275,31.74360200062811543,0.67498389179841078,-0.00338694371780625,0.00269347339165286,0.73781977448833125,0.00111111111111111,0.00111111111111111,-0.00000000000000000,-0.17999999999999999,1.82000000000000006,9.60999999999999943,0.00000000000000000,0.00000000000000000,11.71181401599999994
0.45002222061157227,-100.12174025393782983,121.39264539856560532,31.74556175160729410,0.67494755410277085,-0.00343602926403533,0.00283835721778703,0.73785224580663045,0.00111111111111111,-0.28333333333333333,-0.00000000000000000,-0.17000000000000001,1.83000000000000007,9.60999999999999943,0.00000000000000000,0.00000000000000000,11.71181401599999994
0.46002316474914551,-100.13084837753790168,121.38000948549495206,31.70950286096559978,0.67496476406977179,-0.00344828985802113,0.00290460031440328,0.73783618768552273,0.00111111111111111,-0.28333333333333333,-0.00000000000000000,-0.17000000000000001,1.83000000000000007,9.60999999999999943,0.00000000000000000,0.00000000000000000,11.71181401599999994
0.47002029418945312,-100.11562252198093859,121.38713102205548466,31.71208700073290387,0.67494600551003558,-0.00348072457164684,0.00281184379639082,0.73785355439746192,0.00111111111111111,-0.28333333333333333,-0.00000000000000000,-0.17000000000000001,1.83000000000000007,9.60999999999999943,0.00000000000000000,0.00000000000000000,11.71181401599999994
0.48005008697509766,-100.09182216508014562,121.40398156565943566,31.75065276162974826,0.67497829317490265,-0.00345926917660771,0.00274238541167870,0.73782438054167898,0.00111111111111111,-0.28333333333333333,-0.00000000000000000,-0.17000000000000001,1.83000000000000007,9.60999999999999943,0.00000000000000000,0.00000000000000000,11.71181401599999994
0.49002099037170410,-100.13035912801024097,121.43175475849390921,31.73020914179929264,0.67497194778508895,-0.00334185977862278,0.00279695042293969,0.73783052169502650,0.00111111111111111,-0.28333333333333333,-0.00000000000000000,-0.17000000000000001,1.83000000000000007,9.60999999999999943,0.00000000000000000,0.00000000000000000,11.71181401599999994
0.50002622604370117,-100.11602923339506788,121.44238486015092349,31.73019443150332464,0.67498402841612182,-0.00341347064051354,0.00276718485396363,0.73781925448534791,0.00111111111111111,-0.28333333333333333,-0.00000000000000000,-0.17000000000000001,1.83000000000000007,9.60999999999999943,0.00000000000000000,0.00000000000000000,11.71181401599999994
0.51010227203369141,-100.08176997970481636,121.40686294593518824,31.74189737498214470,0.67501243621441820,-0.00343205345691153,0.00278568726468595,0.73779310915148055,0.00000000000000000,-0.00000000000000000,-0.00222222222222222,-0.17000000000000001,1.82000000000000006,9.58000000000000007,0.00000000000000000,0.00000000000000000,11.70193340800000037
0.52004098892211914,-100.12395427971428319,121.39026688054525493,31.74633461085032238,0.67495777979367966,-0.00345450293779501,0.00279854654813576,0.73784295757475205,0.00000000000000000,-0.00000000000000000,-0.00222222222222222,-0.17000000000000001,1.82000000000000006,9.58000000000000007,0.00000000000000000,0.00000000000000000,11.70193340800000037
0.53004956245422363,-100.10326022982637539,121.38265423406897980,31.74108247489634849,0.67493277332176160,-0.00349355520988884,0.00280273500238722,0.73786563224254997,0.00000000000000000,-0.00000000000000000,-0.00222222222222222,-0.17000000000000001,1.82000000000000006,9.58000000000000007,0.00000000000000000,0.00000000000000000,11.70193340800000037
0.54003190994262695,-100.12829049032109197,121.40899257466729466,31.79196575400046854,0.67486459269341270,-0.00345741374800948,0.00264190428102681,0.73792875547758663,0.00000000000000000,-0.00000000000000000,-0.00222222222222222,-0.17000000000000001,1.82000000000000006,9.58000000000000007,0.00000000000000000,0.00000000000000000,11.70193340800000037
0.55001783370971680,-100.10958577212784348,121.40500866079564446,31.74717384971849299,0.67494040777806696,-0.00346046104137806,0.00284612468106158,0.73785863871886581,0.28333333333333333,-0.00000000000000000,-0.00111111111111111,-0.17000000000000001,1.83000000000000007,9.58999999999999986,0.00000000000000000,0.00000000000000000,11.70193340800000037
0.56012344360351562,-100.19501096163769205,121.39887061581418948,31.68143748397815784,0.67490247162166217,-0.00334327034771518,0.00299159092749201,0.73789330307712919,0.28333333333333333,-0.00000000000000000,-0.00111111111111111,-0.17000000000000001,1.83000000000000007,9.58999999999999986,0.00000000000000000,0.00000000000000000,11.70193340800000037
0.57002925872802734,-100.19826093498647879,121.39604485872524720,31.69278935249475637,0.67488294964627726,-0.00338672530762986,0.00294005359913878,0.73791116704740622,0.28333333333333333,-0.00000000000000000,-0.00111111111111111,-0.17000000000000001,1.83000000000000007,9.58999999999999986,0.00000000000000000,0.00000000000000000,11.70193340800000037
0.58005213737487793,-100.16648553350778172,121.38399728472273864,31.72054470502919443,0.67488781907262974,-0.00340058389419464,0.00288512424963996,0.73790686658590710,0.28333333333333333,-0.00000000000000000,-0.00111111111111111,-0.17000000000000001,1.83000000000000007,9.58999999999999986,0.00000000000000000,0.00000000000000000,11.70193340800000037
0.59001803398132324,-100.20583895061149349,121.40651536431778368,31.70059926516648474,0.67486540145314278,-0.00336585600265752,0.00290393685810965,0.73792745448694452,0.28333333333333333,-0.00000000000000000,-0.00111111111111111,-0.17000000000000001,1.83000000000000007,9.58999999999999986,0.00000000000000000,0.00000000000000000,11.70193340800000037
0.60002112388610840,-100.21216565013855870,121.43663001541069946,31.71873175768190478,0.67488674195436116,-0.00334178461489626,0.00289745689196067,0.73790807202074615,0.00222222222222222,-0.00111111111111111,-0.00111111111111111,-0.17999999999999999,1.83000000000000007,9.58999999999999986,0.00000000000000000,0.00000000000000000,11.71181401599999994
0.61001992225646973,-100.22660323041776564,121.35666727030429968,31.69277001165090368,0.67489979601766625,-0.00329996324485994,0.00295539305522478,0.73789609107907839,0.00222222222222222,-0.00111111111111111,-0.00111111111111111,-0.17999999999999999,1.83000000000000007,9.58999999999999986,0.00000000000000000,0.00000000000000000,11.71181401599999994
0.62002348899841309,-100.15697794911602614,121.33267528765628640,31.70632466025888618,0.67485814027249080,-0.00348016169162726,0.00293067621048637,0.73793345914079844,0.00222222222222222,-0.00111111111111111,-0.00111111111111111,-0.17999999999999999,1.83000000000000007,9.58999999999999986,0.00000000000000000,0.00000000000000000,11.71181401599999994
0.63006353378295898,-100.18930285894755627,121.38052988415302025,31.68990486652181104,0.67484432200300626,-0.00340708625660927,0.00287760993856449,0.73794664589290171,0.00222222222222222,-0.00111111111111111,-0.00111111111111111,-0.17999999999999999,1.83000000000000007,9.58999999999999986,0.00000000000000000,0.00000000000000000,11.71181401599999994
0.64001893997192383,-100.20135826424807135,121.40195890324874028,31.72767419607379580,0.67484725383261879,-0.00334755387928699,0.00286238128500896,0.73794429644179615,0.00222222222222222,-0.00111111111111111,-0.00111111111111111,-0.17999999999999999,1.83000000000000007,9.58999999999999986,0.00000000000000000,0.00000000000000000,11.71181401599999994
0.65002250671386719,-100.20122455337661904,121.38593254684489864,31.70993651972740324,0.67486041625229709,-0.00339823540159367,0.00296065553268911,0.73793163984934840,0.00111111111111111,0.00333333333333333,-0.00111111111111111,-0.14999999999999999,1.83000000000000007,9.61999999999999922,0.00000000000000000,0.00000000000000000,11.69534633600000006
0.66002154350280762,-100.18456369905516112,121.36124735396064978,31.68497621143167819,0.67491090625199657,-0.00342810322623591,0.00295409526991448,0.73788535020795420,0.00111111111111111,0.00333333333333333,-0.00111111111111111,-0.14999999999999999,1.83000000000000007,9.61999999999999922,0.00000000000000000,0.00000000000000000,11.69534633600000006
0.67001771926879883,-100.22362226932163765,121.39366204996797194,31.69431316628734052,0.67486704997779268,-0.00338135573636734,0.00298163127610953,0.73792556613969473,0.00111111111111111,0.00333333333333333,-0.00111111111111111,-0.14999999999999999,1.83000000000000007,9.61999999999999922,0.00000000000000000,0.00000000000000000,11.69534633600000006
0.68007755279541016,-100.24141673699161004,121.37642537960520883,31.70505664737640572,0.67480826696641050,-0.00341340243839684,0.00296500844553325,0.73797924106474766,0.00111111111111111,0.00333333333333333,-0.00111111111111111,-0.14999999999999999,1.83000000000000007,9.61999999999999922,0.00000000000000000,0.00000000000000000,11.69534633600000006
0.69002866744995117,-100.25141801275931641,121.39862937415260546,31.71075907304281927,0.67480690362191975,-0.00335242769288492,0.00293908290860756,0.73798087092039000,0.00111111111111111,0.00333333333333333,-0.00111111111111111,-0.14999999999999999,1.83000000000000007,9.61999999999999922,0.00000000000000000,0.00000000000000000,11.69534633600000006
0.70001816749572754,-100.25623014167975100,121.37979508275022056,31.70294719812484274,0.67481444177036098,-0.00341437235570112,0.00299786952938134,0.73797345752937327,0.00111111111111111,-0.00222222222222222,-0.00000000000000000,-0.17000000000000001,1.84000000000000008,9.58000000000000007,0.00000000000000000,0.00000000000000000,11.71510755200000098
0.71012639999389648,-100.24988748791436421,121.39666912322309145,31.67473358750984502,0.67481198371999240,-0.00339140470078942,0.00303344999456763,0.73797566571207085,0.00111111111111111,-0.00222222222222222,-0.00000000000000000,-0.17000000000000001,1.84000000000000008,9.58000000000000007,0.00000000000000000,0.00000000000000000,11.71510755200000098
0.72002053260803223,-100.25329861639617945,121.37163283002242053,31.68886912340500217,0.67475497657436845,-0.00341429540702289,0.00296974319642350,0.73802794310266062,0.00111111111111111,-0.00222222222222222,-0.00000000000000000,-0.17000000000000001,1.84000000000000008,9.58000000000000007,0.00000000000000000,0.00000000000000000,11.71510755200000098
0.73006892204284668,-100.24388794868262664,121.39092562224480787,31.70108558715399738,0.67480907504767618,-0.00338155286663279,0.00288829312779780,0.73797895301716976,0.00111111111111111,-0.00222222222222222,-0.00000000000000000,-0.17000000000000001,1.84000000000000008,9.58000000000000007,0.00000000000000000,0.00000000000000000,11.71510755200000098
0.74002289772033691,-100.26832328988780318,121.37894005156090316,31.66935751841199931,0.67475395549748785,-0.00336900436779382,0.00294882798454595,0.73802916864008994,0.00111111111111111,-0.00222222222222222,-0.00000000000000000,-0.17000000000000001,1.84000000000000008,9.58000000000000007,0.00000000000000000,0.00000000000000000,11.71510755200000098
0.75001931190490723,-100.23260117245111189,121.38808459146218865,31.68915567970516634,0.67482420859215464,-0.00343474699853052,0.00295619655485355,0.73796460004051512,0.00111111111111111,-0.00222222222222222,-0.00000000000000000,-0.17000000000000001,1.84000000000000008,9.58000000000000007,0.00000000000000000,0.00000000000000000,11.71510755200000098
0.76004528999328613,-100.23387418924566816,121.39973116004891551,31.68345266294478435,0.67484372673657866,-0.00337424500865913,0.00296617185066704,0.73794699049420864,0.00111111111111111,-0.00000000000000000,-0.00111111111111111,-0.17000000000000001,1.83000000000000007,9.58999999999999986,0.00000000000000000,0.00000000000000000,11.72169462400000128
0.77002072334289551,-100.25730963532902251,121.38637214156626953,31.66568868415826543,0.67480578758898202,-0.00336571170937675,0.00300158564271773,0.73798157938036157,0.00111111111111111,-0.00000000000000000,-0.00111111111111111,-0.17000000000000001,1.83000000000000007,9.58999999999999986,0.00000000000000000,0.00000000000000000,11.72169462400000128
0.78006935119628906,-100.28566138522613471,121.34656415187346568,31.67090932831204597,0.67473725165407417,-0.00341901856741701,0.00304209902589823,0.73804383147334751,0.00111111111111111,-0.00000000000000000,-0.00111111111111111,-0.17000000000000001,1.83000000000000007,9.58999999999999986,0.00000000000000000,0.00000000000000000,11.72169462400000128
0.79002404212951660,-100.27803080332144248,121.36215974851033650,31.66692929353624208,0.67474851297397809,-0.00339109058387052,0.00298325586486895,0.73803390499929067,0.00111111111111111,-0.00000000000000000,-0.00111111111111111,-0.17000000000000001,1.83000000000000007,9.58999999999999986,0.00000000000000000,0.00000000000000000,11.72169462400000128
0.79993939399719238,-100.23700151866546548,121.39663915272764427,31.71001362398837031,0.67478771461888054,-0.00341799789962508,0.00293070586058112,0.73799814935604346,0.00000000000000000,-0.00333333333333333,-0.28222222222222221,-0.16000000000000000,1.83000000000000007,9.60999999999999943,0.00000000000000000,0.00000000000000000,11.71510755200000098
0.80999779701232910,-100.24318218425155180,121.40053868410085158,31.69576419474718776,0.67480734294059663,-0.00335129806668884,0.00299061230023779,0.73798026731938426,0.00000000000000000,-0.00333333333333333,-0.28222222222222221,-0.16000000000000000,1.83000000000000007,9.60999999999999943,0.00000000000000000,0.00000000000000000,11.71510755200000098
0.82001876831054688,-100.28413600064504863,121.37969283335682746,31.67654666260501983,0.67475855858329004,-0.00339077044589091,0.00299246912722120,0.73802468483303907,0.00000000000000000,-0.00333333333333333,-0.28222222222222221,-0.16000000000000000,1.83000000000000007,9.60999999999999943,0.00000000000000000,0.00000000000000000,11.71510755200000098
0.83001184463500977,-100.24634978594087897,121.35634994160695044,31.67460967140848638,0.67476879179573457,-0.00343757899856652,0.00297235302490605,0.73801519346599420,0.00000000000000000,-0.00333333333333333,-0.28222222222222221,-0.16000000000000000,1.83000000000000007,9.60999999999999943,0.00000000000000000,0.00000000000000000,11.71510755200000098
0.84002161026000977,-100.23316239073555778,121.40383390304164379,31.68961260929870605,0.67477998557478835,-0.00335984904033118,0.00291497378501695,0.73800554564985976,0.00000000000000000,-0.00333333333333333,-0.28222222222222221,-0.16000000000000000,1.83000000000000007,9.60999999999999943,0.00000000000000000,0.00000000000000000,11.71510755200000098
0.85001802444458008,-100.22228921912987687,121.37967624079919915,31.69924371648780337,0.67478774654273843,-0.00341072054225043,0.00291908521906620,0.73799819989119186,0.00111111111111111,0.00222222222222222,0.00111111111111111,-0.16000000000000000,1.83000000000000007,9.61999999999999922,0.00000000000000000,0.00000000000000000,11.71510755200000098
0.86001896858215332,-100.27926328278181245,121.38031639167461151,31.65860385723648562,0.67478509809799159,-0.00333527178006123,0.00309356717900431,0.73800025554815762,0.00111111111111111,0.00222222222222222,0.00111111111111111,-0.16000000000000000,1.83000000000000007,9.61999999999999922,0.00000000000000000,0.00000000000000000,11.71510755200000098
0.87003946304321289,-100.25751107404975926,121.37317430675579999,31.68538914910675786,0.67478304807981837,-0.00339345312061059,0.00299359396448161,0.73800227702575827,0.00111111111111111,0.00222222222222222,0.00111111111111111,-0.16000000000000000,1.83000000000000007,9.61999999999999922,0.00000000000000000,0.00000000000000000,11.71510755200000098
0.88006615638732910,-100.29227084269325587,121.37237358865172610,31.68365199733301907,0.67475063638240884,-0.00333629704547163,0.00305294616442747,0.73803192840369436,0.00111111111111111,0.00222222222222222,0.00111111111111111,-0.16000000000000000,1.83000000000000007,9.61999999999999922,0.00000000000000000,0.00000000000000000,11.71510755200000098
0.89016103744506836,-100.26495389300824002,121.38139400813348345,31.68261811529028193,0.67473556213378094,-0.00339858567291145,0.00297492732590937,0.73804574425630298,0.00111111111111111,0.00222222222222222,0.00111111111111111,-0.16000000000000000,1.83000000000000007,9.61999999999999922,0.00000000000000000,0.00000000000000000,11.71510755200000098
0.90011310577392578,-100.28843545389860026,121.38963352330178225,31.68228951698176488,0.67475642498281641,-0.00337446479981148,0.00304056466478840,0.73802651368243066,0.00000000000000000,0.28333333333333333,-0.00111111111111111,-0.17000000000000001,1.82000000000000006,9.58999999999999986,0.00000000000000000,0.00000000000000000,11.71510755200000098
0.91011977195739746,-100.30226022395440566,121.37292500310711318,31.65470303208987346,0.67477288257133861,-0.00333865651396603,0.00313740232487182,0.73801122418680043,0.00000000000000000,0.28333333333333333,-0.00111111111111111,-0.17000000000000001,1.82000000000000006,9.58999999999999986,0.00000000000000000,0.00000000000000000,11.71510755200000098
0.92012119293212891,-100.29892645192030898,121.39399900176879044,31.64045757746851351,0.67478931996689628,-0.00332176359160023,0.00308997621288042,0.73799647126003143,0.00000000000000000,0.28333333333333333,-0.00111111111111111,-0.17000000000000001,1.82000000000000006,9.58999999999999986,0.00000000000000000,0.00000000000000000,11.71510755200000098
0.93012142181396484,-100.26262701438353986,121.38812499437706549,31.68588111791324025,0.67474891433233442,-0.00342444712286187,0.00288536122203680,0.73803377325150743,0.00000000000000000,0.28333333333333333,-0.00111111111111111,-0.17000000000000001,1.82000000000000006,9.58999999999999986,0.00000000000000000,0.00000000000000000,11.71510755200000098
0.94011783599853516,-100.24255488514512535,121.41733713422699736,31.69585416355347718,0.67479883458728418,-0.00338209619703991,0.00288927399765950,0.73798831044991731,0.00000000000000000,0.28333333333333333,-0.00111111111111111,-0.17000000000000001,1.82000000000000006,9.58999999999999986,0.00000000000000000,0.00000000000000000,11.71510755200000098
0.95011758804321289,-100.25748064594097286,121.40718205708185451,31.69971032233415187,0.67480045890093387,-0.00341422227688585,0.00297857199562823,0.73798632227311634,0.00000000000000000,-0.00111111111111111,-0.00000000000000000,-0.17999999999999999,1.85000000000000009,9.59999999999999964,0.00000000000000000,0.00000000000000000,11.71840108800000024
0.96011590957641602,-100.24667525192739959,121.40733024546140939,31.67307264464874095,0.67484271966880327,-0.00336976098760369,0.00300602695682694,0.73794777066052220,0.00000000000000000,-0.00111111111111111,-0.00000000000000000,-0.17999999999999999,1.85000000000000009,9.59999999999999964,0.00000000000000000,0.00000000000000000,11.71840108800000024
0.97012996673583984,-100.24399423546208254,121.38237878921076174,31.69248400869656379,0.67477558241492430,-0.00337911345769897,0.00296645016411961,0.73800927849334219,0.00000000000000000,-0.00111111111111111,-0.00000000000000000,-0.17999999999999999,1.85000000000000009,9.59999999999999964,0.00000000000000000,0.00000000000000000,11.71840108800000024
0.98007559776306152,-100.21771275022776138,121.38740377426915984,31.69082727278036415,0.67480303516571971,-0.00340943361936437,0.00296870025297759,0.73798402849406941,0.00000000000000000,-0.00111111111111111,-0.00000000000000000,-0.17999999999999999,1.85000000000000009,9.59999999999999964,0.00000000000000000,0.00000000000000000,11.71840108800000024
0.99011039733886719,-100.23271259662278965,121.37878277777677738,31.68624589230316602,0.67477803267371239,-0.00343560378582317,0.00293705482529764,0.73800689492481975,0.00000000000000000,-0.00111111111111111,-0.00000000000000000,-0.17999999999999999,1.85000000000000009,9.59999999999999964,0.00000000000000000,0.00000000000000000,11.71840108800000024
1.00006532669067383,-100.17108270159019412,121.39624500724528389,31.70682159851788029,0.67485205377311985,-0.00347189298776493,0.00289104829569570,0.73793922061172168,-0.28444444444444444,-0.00000000000000000,-0.00000000000000000,-0.17000000000000001,1.84000000000000008,9.58999999999999986,0.00000000000000000,0.00000000000000000,11.71840108800000024
1.01004767417907715,-100.22558426152444611,121.40244642906912986,31.68313317206900237,0.67483607636046516,-0.00337409638414826,0.00299012212054199,0.73795389062305738,-0.28444444444444444,-0.00000000000000000,-0.00000000000000000,-0.17000000000000001,1.84000000000000008,9.58999999999999986,0.00000000000000000,0.00000000000000000,11.71840108800000024
1.02006101608276367,-100.19684156632524719,121.36281118011477531,31.68747944098582181,0.67482524462964610,-0.00347669525934966,0.00295358265248117,0.73796346667712964,-0.28444444444444444,-0.00000000000000000,-0.00000000000000000,-0.17000000000000001,1.84000000000000008,9.58999999999999986,0.00000000000000000,0.00000000000000000,11.71840108800000024
1.03017234802246094,-100.20995793483029956,121.38112632269309188,31.68517951712367520,0.67480970111576100,-0.00346062168392203,0.00294990438312668,0.73797777028969402,-0.28444444444444444,-0.00000000000000000,-0.00000000000000000,-0.17000000000000001,1.84000000000000008,9.58999999999999986,0.00000000000000000,0.00000000000000000,11.71840108800000024
1.04007411003112793,-100.23259947170710404,121.37722875802982969,31.69550996959393174,0.67483205439706673,-0.00341822524233364,0.00293351275138631,0.73795759268223815,-0.28444444444444444,-0.00000000000000000,-0.00000000000000000,-0.17000000000000001,1.84000000000000008,9.58999999999999986,0.00000000000000000,0.00000000000000000,11.71840108800000024
1.05009603500366211,-100.27719422339652056,121.38909447500606120,31.68297140039149440,0.67477486068171466,-0.00341171479118820,0.00303377875802402,0.73800951469517240,-0.28444444444444444,-0.00000000000000000,-0.00000000000000000,-0.17000000000000001,1.84000000000000008,9.58999999999999986,0.00000000000000000,0.00000000000000000,11.71840108800000024
1.06004762649536133,-100.25681938541113425,121.39292445591455305,31.67446792227382346,0.67482622487773780,-0.00332362430782381,0.00304212380737017,0.73796291588497986,0.28333333333333333,-0.00111111111111111,0.00111111111111111,-0.17000000000000001,1.83000000000000007,9.59999999999999964,-0.00000000000000000,0.00000000000000000,11.71510755200000098
1.07001781463623047,-100.24211769286256413,121.37072028697143367,31.69726152110431983,0.67477815247297679,-0.00346146432261089,0.00296482074481561,0.73800655352635613,0.28333333333333333,-0.00111111111111111,0.00111111111111111,-0.17000000000000001,1.83000000000000007,9.59999999999999964,-0.00000000000000000,0.00000000000000000,11.71510755200000098
1.08007740974426270,-100.28680028654487444,121.35234977534139489,31.67837280977453318,0.67471417663999411,-0.00341536404955492,0.00307027694665054,0.73806482677939256,0.28333333333333333,-0.00111111111111111,0.00111111111111111,-0.17000000000000001,1.83000000000000007,9.59999999999999964,-0.00000000000000000,0.00000000000000000,11.71510755200000098
1.09009027481079102,-100.25985349140107417,121.41333210294469325,31.67736785940784827,0.67476112025875112,-0.00339334152559474,0.00292351786409281,0.73802260728499647,0.28333333333333333,-0.00111111111111111,0.00111111111111111,-0.17000000000000001,1.83000000000000007,9.59999999999999964,-0.00000000000000000,0.00000000000000000,11.71510755200000098
1.10012197494506836,-100.26850067228798480,121.40392693127405721,31.70503163852627893,0.67477914346423351,-0.00341337171599776,0.00299579821050143,0.73800574634096572,0.00111111111111111,0.00111111111111111,0.00111111111111111,-0.19000000000000000,1.82000000000000006,9.59999999999999964,-0.00000000000000000,0.00000000000000000,11.71510755200000098
1.11003923416137695,-100.26792939069207478,121.42169253354946079,31.69901466654826550,0.67479216807067655,-0.00327143345001444,0.00304504455010129,0.73799427866166123,0.00111111111111111,0.00111111111111111,0.00111111111111111,-0.19000000000000000,1.82000000000000006,9.59999999999999964,-0.00000000000000000,0.00000000000000000,11.71510755200000098
1.12003755569458008,-100.26598005755245424,121.36546007459621421,31.69713734521589288,0.67476396472900380,-0.00347157103196717,0.00298151423426526,0.73801941076819710,0.00111111111111111,0.00111111111111111,0.00111111111111111,-0.19000000000000000,1.82000000000000006,9.59999999999999964,-0.00000000000000000,0.00000000000000000,11.71510755200000098
1.13006114959716797,-100.30001024858712810,121.37927008484325597,31.68092255140521729,0.67473197778356442,-0.00337657899351510,0.00305771129135856,0.73804878380242511,0.00111111111111111,0.00111111111111111,0.00111111111111111,-0.19000000000000000,1.82000000000000006,9.59999999999999964,-0.00000000000000000,0.00000000000000000,11.71510755200000098
1.14004254341125488,-100.28813353059551616,121.37989370465271577,31.67019325404391239,0.67473123288507475,-0.00337581951044212,0.00299535656190061,0.73804972396925073,0.00111111111111111,0.00111111111111111,0.00111111111111111,-0.19000000000000000,1.82000000000000006,9.59999999999999964,-0.00000000000000000,0.00000000000000000,11.71510755200000098
1.15000700950622559,-100.29315692600148680,121.37508621226527339,31.67621428368742897,0.67472543482772107,-0.00335678624395092,0.00306688006651888,0.73805481763166669,0.00111111111111111,0.00111111111111111,0.00111111111111111,-0.19000000000000000,1.82000000000000006,9.59999999999999964,-0.00000000000000000,0.00000000000000000,11.71510755200000098
1.16000890731811523,-100.27619215142389919,121.37091571962992020,31.67010385412287476,0.67479790112206406,-0.00332835252256575,0.00306607939730982,0.73798869494584518,-0.00444444444444444,0.00222222222222222,0.28333333333333333,-0.16000000000000000,1.83000000000000007,9.60999999999999943,-5.70000000000000018,-5.70000000000000018,11.71181401599999994
1.17024707794189453,-100.31267095417682356,121.35911735054673954,31.65927303421760897,0.67469778215838050,-0.00340376619583152,0.00308031916272274,0.73807982546612261,-0.00444444444444444,0.00222222222222222,0.28333333333333333,-0.16000000000000000,1.83000000000000007,9.60999999999999943,-5.70000000000000018,-5.70000000000000018,11.71181401599999994
1.18008947372436523,-100.28629771377136137,121.34405172830152253,31.67531198028028427,0.67475122296587786,-0.00340679301155050,0.00303151749949585,0.73803115839988698,-0.00444444444444444,0.00222222222222222,0.28333333333333333,-0.16000000000000000,1.83000000000000007,9.60999999999999943,-5.70000000000000018,-5.70000000000000018,11.71181401599999994
1.18998622894287109,-100.21079634788141277,121.35054428714819608,31.69245804536269873,0.67486066984890614,-0.00344868772069620,0.00289479663591687,0.73793143515947834,-0.00444444444444444,0.00222222222222222,0.28333333333333333,-0.16000000000000000,1.83000000000000007,9.60999999999999943,-5.70000000000000018,-5.70000000000000018,11.71181401599999994
1.20005846023559570,-100.29189199881575689,121.33790778485511908,31.66795759522851839,0.67478548365257540,-0.00338458979606567,0.00310154459662465,0.73799964500315840,-0.00444444444444444,0.00222222222222222,0.28333333333333333,-0.16000000000000000,1.83000000000000007,9.60999999999999943,-5.70000000000000018,-5.70000000000000018,11.71181401599999994
1.21007180213928223,-100.23812294321567151,121.34032774478123429,31.65733753992207156,0.67489570148317213,-0.00340064323107715,0.00301717275280673,0.73789912888804243,-0.00444444444444444,0.00222222222222222,0.28333333333333333,-0.16000000000000000,1.83000000000000007,9.60999999999999943,-5.70000000000000018,-5.70000000000000018,11.71181401599999994
1.22008395195007324,-100.22023032801234876,121.29933083274579531,31.67227262240793095,0.67479654965853775,-0.00346859627557830,0.00292040385889551,0.73798987570976249,0.00111111111111111,0.00666666666666667,-0.00111111111111111,-0.14999999999999999,1.83000000000000007,9.60999999999999943,-27.50000000000000000,-27.50000000000000000,11.70193340800000037
1.23007726669311523,-100.25233396754423154,121.28218432136937110,31.62697535835209806,0.67473079713598005,-0.00347967288281583,0.00301326366506117,0.73804956711250691,0.00111111111111111,0.00666666666666667,-0.00111111111111111,-0.14999999999999999,1.83000000000000007,9.60999999999999943,-27.50000000000000000,-27.50000000000000000,11.70193340800000037
1.24007678031921387,-100.29648109123105826,121.18118103478566638,31.45134682089211253,0.67463401209063123,-0.00361790673727643,0.00339371774095953,0.73813572136920258,0.00111111111111111,0.00666666666666667,-0.00111111111111111,-0.14999999999999999,1.83000000000000007,9.60999999999999943,-27.50000000000000000,-27.50000000000000000,11.70193340800000037
1.25008177757263184,-100.20479777069108707,120.75902189150417598,31.34922241620172301,0.67454944963622276,-0.00413591575798358,0.00368232173870748,0.73820889638565379,-0.00111111111111111,0.00333333333333333,0.00444444444444444,0.32000000000000001,1.70999999999999996,9.44999999999999929,-35.70000000000000284,-35.70000000000000284,11.70852048000000067
1.26004171371459961,-100.07326858226792865,119.79914655597906403,31.35344049658393217,0.67470891583578840,-0.00487937001715193,0.00439501052358470,0.73805470970818166,-0.00111111111111111,0.00333333333333333,0.00444444444444444,0.32000000000000001,1.70999999999999996,9.44999999999999929,-35.70000000000000284,-35.70000000000000284,11.70852048000000067
1.27011847496032715,-99.94539178418305880,118.48951712092258504,31.34312885446693997,0.67494073916800978,-0.00564703870688364,0.00517268286138981,0.73783219834675029,-0.00111111111111111,0.00333333333333333,0.00444444444444444,0.32000000000000001,1.70999999999999996,9.44999999999999929,-35.70000000000000284,-35.70000000000000284,11.70852048000000067
1.28006315231323242,-99.71573622527506586,116.97254208886842264,31.40145824230602045,0.67520850178809788,-0.00659114989267862,0.00561647682468246,0.73757609169782778,-0.00111111111111111,0.00333333333333333,0.00444444444444444,0.32000000000000001,1.70999999999999996,9.44999999999999929,-35.70000000000000284,-35.70000000000000284,11.70852048000000067
1.29002165794372559,-99.44125651223571083,115.12086493602970450,31.39909681721114509,0.67542636249214694,-0.00732103622312232,0.00589516916178819,0.73736753268624500,-0.00111111111111111,0.00333333333333333,0.00444444444444444,0.32000000000000001,1.70999999999999996,9.44999999999999929,-35.70000000000000284,-35.70000000000000284,11.70852048000000067
1.30002021789550781,-99.37926452123546994,113.32918946103218616,31.40124795271599112,0.67548065537184654,-0.00744097909992420,0.00608003613602025,0.73731509492824021,-0.00111111111111111,0.00333333333333333,0.00444444444444444,0.32000000000000001,1.70999999999999996,9.44999999999999929,-35.70000000000000284,-35.70000000000000284,11.70852048000000067
1.31008505821228027,-99.46224902426975234,111.22981224783192999,31.35797708106577986,0.67538418476852791,-0.00685840489849531,0.00620898064694987,0.73740803752476491,-0.00111111111111111,0.23555555555555555,-0.04111111111111111,-4.65000000000000036,1.52000000000000002,8.75000000000000000,-40.89999999999999858,-40.89999999999999858,11.65582390400000001
1.32003617286682129,-99.33812309199385027,109.08810262351813947,31.24963274219622988,0.67535710678249772,-0.00627752536779016,0.00600416462271959,0.73743970668849534,-0.00111111111111111,0.23555555555555555,-0.04111111111111111,-4.65000000000000036,1.52000000000000002,8.75000000000000000,-40.89999999999999858,-40.89999999999999858,11.65582390400000001
1.33016586303710938,-99.31895743635730867,106.73732188110675168,31.20888050804880365,0.67531916564773165,-0.00490238292428026,0.00545261925706294,0.73748915930592007,-0.00111111111111111,0.23555555555555555,-0.04111111111111111,-4.65000000000000036,1.52000000000000002,8.75000000000000000,-40.89999999999999858,-40.89999999999999858,11.65582390400000001
1.34010481834411621,-99.26426904549607855,104.16699558651805546,31.14439359804940466,0.67521724463271393,-0.00333777187934992,0.00483436276185143,0.73759552653617277,-0.00111111111111111,0.23555555555555555,-0.04111111111111111,-4.65000000000000036,1.52000000000000002,8.75000000000000000,-40.89999999999999858,-40.89999999999999858,11.65582390400000001
1.35011339187622070,-98.87698663987708869,101.59007417284044550,31.44131249766823899,0.67534453843358022,-0.00322337925933632,0.00401667345707432,0.73748439344058236,-0.00111111111111111,0.23555555555555555,-0.04111111111111111,-4.65000000000000036,1.52000000000000002,8.75000000000000000,-40.89999999999999858,-40.89999999999999858,11.65582390400000001
1.36016511917114258,-98.58968117968542799,98.51498315332293032,31.46433501670344057,0.67537778081704336,-0.00316650844487540,0.00395979668677316,0.73745450463951567,0.00888888888888889,-0.15222222222222223,-0.02555555555555556,-3.20000000000000018,2.02000000000000002,9.13000000000000078,-44.70000000000000284,-44.70000000000000284,11.70193340800000037
1.37007498741149902,-98.49439786814291153,95.73165873155927841,31.45420488492657896,0.67508308599400613,-0.00340321131607470,0.00377506553222331,0.73772419916780219,0.00888888888888889,-0.15222222222222223,-0.02555555555555556,-3.20000000000000018,2.02000000000000002,9.13000000000000078,-44.70000000000000284,-44.70000000000000284,11.70193340800000037
1.38005733489990234,-98.52332361775184211,92.65608649463376878,31.46750891161934405,0.67484401179590991,-0.00301583588030213,0.00411474398760654,0.73794277105955941,0.00888888888888889,-0.15222222222222223,-0.02555555555555556,-3.20000000000000018,2.02000000000000002,9.13000000000000078,-44.70000000000000284,-44.70000000000000284,11.70193340800000037
1.39016556739807129,-98.19316128829115087,89.65723510379655181,31.47670801195474155,0.67482587548317219,-0.00287863140901509,0.00408571164599381,0.73796006546420023,0.00888888888888889,-0.15222222222222223,-0.02555555555555556,-3.20000000000000018,2.02000000000000002,9.13000000000000078,-44.70000000000000284,-44.70000000000000284,11.70193340800000037
1.39996218681335449,-97.90484273148736349,87.00468184496340029,31.60121080539316907,0.67488963825183901,-0.00288955508432920,0.00396325613874585,0.73790237786071333,-0.26888888888888890,-0.14222222222222222,0.02333333333333333,-2.02999999999999980,1.52000000000000002,9.85999999999999943,-49.89999999999999858,-49.89999999999999858,11.69863987200000111
1.40999722480773926,-97.67471946711062003,84.02393521694865797,31.45704171486577039,0.67498264204415892,-0.00284228307682817,0.00422943204516405,0.73781601112375805,-0.26888888888888890,-0.14222222222222222,0.02333333333333333,-2.02999999999999980,1.52000000000000002,9.85999999999999943,-49.89999999999999858,-49.89999999999999858,11.69863987200000111
1.41998767852783203,-97.52766526663860702,81.26284824093603731,31.33078227892344003,0.67505521317793205,-0.00293773124576671,0.00446365414600652,0.73774785983294378,-0.26888888888888890,-0.14222222222222222,0.02333333333333333,-2.02999999999999980,1.52000000000000002,9.85999999999999943,-49.89999999999999858,-49.89999999999999858,11.69863987200000111
1.43008089065551758,-97.28986002035905756,78.24293302661202176,31.21181872317334083,0.67525007277501303,-0.00318377659914077,0.00465598085381876,0.73756730176045271,-0.26888888888888890,-0.14222222222222222,0.02333333333333333,-2.02999999999999980,1.52000000000000002,9.85999999999999943,-49.89999999999999858,-49.89999999999999858,11.69863987200000111
1.44001913070678711,-96.99198044819878817,75.22386020672841767,31.37355688086438121,0.67547511581701503,-0.00318157822376748,0.00384643098348146,0.73736588640964773,-0.26888888888888890,-0.14222222222222222,0.02333333333333333,-2.02999999999999980,1.52000000000000002,9.85999999999999943,-49.89999999999999858,-49.89999999999999858,11.69863987200000111
1.45002937316894531,-96.77560739898349595,72.28472885009715299,31.31246901259855875,0.67591127217552505,-0.00280684017594629,0.00412210722479126,0.73696613356810159,-0.26888888888888890,-0.14222222222222222,0.02333333333333333,-2.02999999999999980,1.52000000000000002,9.85999999999999943,-49.89999999999999858,-49.89999999999999858,11.69863987200000111
1.46001839637756348,-96.46719448116708406,68.75705603266665378,31.46499594246538933,0.67597839679344107,-0.00270096344498964,0.00379635524622616,0.73690671020956433,0.01777777777777778,0.02666666666666667,-0.04000000000000000,-0.92000000000000004,2.31000000000000005,9.50999999999999979,-63.39999999999999858,-63.39999999999999858,11.67887865600000019
1.47002840042114258,-96.17484318473331939,65.55223873013257219,31.42097721199470683,0.67601121498165329,-0.00261983792331553,0.00389868592641711,0.73687636270702228,0.01777777777777778,0.02666666666666667,-0.04000000000000000,-0.92000000000000004,2.31000000000000005,9.50999999999999979,-63.39999999999999858,-63.39999999999999858,11.67887865600000019
1.48008728027343750,-95.74441661487981037,61.83787165845276945,31.25285376542914051,0.67588650218461555,-0.00303619090155507,0.00373992512448185,0.73698998003332306,0.01777777777777778,0.02666666666666667,-0.04000000000000000,-0.92000000000000004,2.31000000000000005,9.50999999999999979,-63.39999999999999858,-63.39999999999999858,11.67887865600000019
1.49008727073669434,-95.41141595953659760,57.95631211677278571,31.26152839898527347,0.67589894595452304,-0.00330577220084440,0.00345001872805040,0.73697882201491882,0.01777777777777778,0.02666666666666667,-0.04000000000000000,-0.92000000000000004,2.31000000000000005,9.50999999999999979,-63.39999999999999858,-63.39999999999999858,11.67887865600000019
1.50004768371582031,-95.17905305951857997,54.22026145968590072,31.25837796276673330,0.67624086954721307,-0.00300846324504539,0.00390048621318015,0.73666411729514347,0.01777777777777778,0.02666666666666667,-0.04000000000000000,-0.92000000000000004,2.31000000000000005,9.50999999999999979,-63.39999999999999858,-63.39999999999999858,11.67887865600000019
1.51002168655395508,-94.78949709719400119,50.00833908448553444,31.31230119624782660,0.67649097184464491,-0.00265808297723878,0.00400045440555898,0.73643526258057701,0.02222222222222222,-0.07555555555555556,0.00777777777777778,-1.71999999999999997,2.06999999999999984,9.64000000000000057,-71.59999999999999432,-71.59999999999999432,11.64594329600000044
1.52001404762268066,-94.55608504642685830,45.95454840019868215,31.25934887999031631,0.67648801853158202,-0.00277312178700634,0.00414696121599399,0.73643674086199751,0.02222222222222222,-0.07555555555555556,0.00777777777777778,-1.71999999999999997,2.06999999999999984,9.64000000000000057,-71.59999999999999432,-71.59999999999999432,11.64594329600000044
1.53000998497009277,-94.10507620025721565,41.41126172968385788,31.48172927606248095,0.67625989638033457,-0.00289480686404319,0.00334971444561097,0.73664981643519878,0.02222222222222222,-0.07555555555555556,0.00777777777777778,-1.71999999999999997,2.06999999999999984,9.64000000000000057,-71.59999999999999432,-71.59999999999999432,11.64594329600000044
1.54003667831420898,-93.71286987464316098,36.63622022111550081,31.44306519984411707,0.67629924912359951,-0.00291673341590733,0.00344241787759035,0.73661317396595061,0.02222222222222222,-0.07555555555555556,0.00777777777777778,-1.71999999999999997,2.06999999999999984,9.64000000000000057,-71.59999999999999432,-71.59999999999999432,11.64594329600000044
1.55002975463867188,-93.33127815569635288,32.13938144422555609,31.69253237032088677,0.67615914852956038,-0.00244920549599704,0.00368828933868200,0.73674229128914048,0.02333333333333333,-0.01333333333333333,-0.04222222222222222,-1.51000000000000001,1.62000000000000011,10.34999999999999964,-76.09999999999999432,-76.09999999999999432,11.66570451199999958
1.56002473831176758,-92.96870866805524258,27.04691779878541169,31.62034154173025513,0.67637000577316031,-0.00261332413436241,0.00396218017348168,0.73654673100602119,0.02333333333333333,-0.01333333333333333,-0.04222222222222222,-1.51000000000000001,1.62000000000000011,10.34999999999999964,-76.09999999999999432,-76.09999999999999432,11.66570451199999958
1.57002425193786621,-92.54593707483616072,22.39534983564668735,31.68543290978180949,0.67640509105159718,-0.00273770232959652,0.00402478857609397,0.73651371939859511,0.02333333333333333,-0.01333333333333333,-0.04222222222222222,-1.51000000000000001,1.62000000000000011,10.34999999999999964,-76.09999999999999432,-76.09999999999999432,11.66570451199999958
1.58010506629943848,-92.12875076907589289,17.38047326374713464,31.73069120271024346,0.67649604158350707,-0.00268729927742283,0.00363365374349094,0.73643240063491999,0.02333333333333333,-0.01333333333333333,-0.04222222222222222,-1.51000000000000001,1.62000000000000011,10.34999999999999964,-76.09999999999999432,-76.09999999999999432,11.66570451199999958
1.59002876281738281,-91.70400826262800820,12.17650240011271912,31.90842525353063408,0.67653438865338678,-0.00303557014279339,0.00300822018038178,0.73639863993264099,0.02333333333333333,-0.01333333333333333,-0.04222222222222222,-1.51000000000000001,1.62000000000000011,10.34999999999999964,-76.09999999999999432,-76.09999999999999432,11.66570451199999958
1.60002040863037109,-91.29919996877134736,7.24815055706261546,31.77403571963629147,0.67671647022724535,-0.00314858793307422,0.00296582819683653,0.73623101617652076,0.02333333333333333,-0.01333333333333333,-0.04222222222222222,-1.51000000000000001,1.62000000000000011,10.34999999999999964,-76.09999999999999432,-76.09999999999999432,11.66570451199999958
1.61014318466186523,-90.88935629161723284,1.84467825626181892,31.79799999032658775,0.67699505943466631,-0.00286165926432420,0.00338379770806444,0.73597421851609601,0.02111111111111111,-0.10222222222222223,-0.04888888888888889,-1.06000000000000005,2.52000000000000002,9.83000000000000007,-76.09999999999999432,-76.09999999999999432,11.62618208000000131
1.62012553215026855,-90.45700058878560412,-3.13676043637377466,31.76199788661561740,0.67715728393729480,-0.00304483743478001,0.00378353673311966,0.73582227923966170,0.02111111111111111,-0.10222222222222223,-0.04888888888888889,-1.06000000000000005,2.52000000000000002,9.83000000000000007,-76.09999999999999432,-76.09999999999999432,11.62618208000000131
1.63013172149658203,-90.03988958182044655,-8.63885304559642542,31.75848455024793182,0.67741026547243710,-0.00294663356305789,0.00415696049494175,0.73558777128406050,0.02111111111111111,-0.10222222222222223,-0.04888888888888889,-1.06000000000000005,2.52000000000000002,9.83000000000000007,-76.09999999999999432,-76.09999999999999432,11.62618208000000131
1.64007616043090820,-89.52355897861752965,-14.12618026103231728,31.72654859570944197,0.67758720007069351,-0.00332038158785344,0.00381070908508922,0.73542507426843817,0.02111111111111111,-0.10222222222222223,-0.04888888888888889,-1.06000000000000005,2.52000000000000002,9.83000000000000007,-76.09999999999999432,-76.09999999999999432,11.62618208000000131
1.65011501312255859,-89.36163247411066379,-18.93829363326049275,31.89153828552945313,0.67778607277431180,-0.00304301637917229,0.00347565550995646,0.73524465276754458,-0.00222222222222222,-0.05666666666666666,-0.04444444444444445,1.44999999999999996,2.00000000000000000,8.71000000000000085,-76.09999999999999432,-76.09999999999999432,11.66899804800000062
1.66006898880004883,-88.98072822831515793,-24.32534543646648828,31.91498818558466510,0.67782726281653294,-0.00291113246486068,0.00375956026379642,0.73520581662350992,-0.00222222222222222,-0.05666666666666666,-0.04444444444444445,1.44999999999999996,2.00000000000000000,8.71000000000000085,-76.09999999999999432,-76.09999999999999432,11.66899804800000062
1.67008042335510254,-88.69936713295901143,-29.24840398890833271,31.76341266042663491,0.67802945331774622,-0.00289214497687266,0.00391235499493680,0.73501863201517859,-0.00222222222222222,-0.05666666666666666,-0.04444444444444445,1.44999999999999996,2.00000000000000000,8.71000000000000085,-76.09999999999999432,-76.09999999999999432,11.66899804800000062
1.68008542060852051,-88.19418479677112543,-34.73518804029296092,31.88511233325981564,0.67832676039136885,-0.00309703536377881,0.00396443263403897,0.73474315089206255,-0.00222222222222222,-0.05666666666666666,-0.04444444444444445,1.44999999999999996,2.00000000000000000,8.71000000000000085,-76.09999999999999432,-76.09999999999999432,11.66899804800000062
1.69011116027832031,-88.05079210079941276,-40.16835696511581233,32.10758382271950495,0.67835992081951302,-0.00268295404626368,0.00405166726273607,0.73471368816411853,-0.00222222222222222,-0.05666666666666666,-0.04444444444444445,1.44999999999999996,2.00000000000000000,8.71000000000000085,-76.09999999999999432,-76.09999999999999432,11.66899804800000062
1.70012235641479492,-87.80301718884031459,-45.03018421988432607,31.99016229381868115,0.67858744759806255,-0.00262427646237298,0.00424688112708287,0.73450265699729644,-0.00222222222222222,-0.05666666666666666,-0.04444444444444445,1.44999999999999996,2.00000000000000000,8.71000000000000085,-76.09999999999999432,-76.09999999999999432,11.66899804800000062
1.71004772186279297,-86.85609431783973378,-50.62845022088080071,31.92230426622063177,0.67898435425592185,-0.00342228853907907,0.00384064813342243,0.73413471790859985,0.03333333333333333,0.06444444444444444,-0.05000000000000000,0.10000000000000001,3.37999999999999989,8.89000000000000057,-76.09999999999999432,-76.09999999999999432,11.64264976000000118
1.72004365921020508,-86.55259968201887943,-55.47743592562554937,32.03688452102837658,0.67901232562579628,-0.00352827384091837,0.00367245099969901,0.73410920579679806,0.03333333333333333,0.06444444444444444,-0.05000000000000000,0.10000000000000001,3.37999999999999989,8.89000000000000057,-76.09999999999999432,-76.09999999999999432,11.64264976000000118
1.73008346557617188,-86.28876854244508365,-60.95422524519553775,32.02703828945010400,0.67899603737648218,-0.00334726135961827,0.00382195747898285,0.73412435575279400,0.03333333333333333,0.06444444444444444,-0.05000000000000000,0.10000000000000001,3.37999999999999989,8.89000000000000057,-76.09999999999999432,-76.09999999999999432,11.64264976000000118
1.74001836776733398,-85.76799403199595417,-66.33987069283570293,32.06206755448895507,0.67896683211604758,-0.00333624006846695,0.00355474795562519,0.73415275941419489,0.03333333333333333,0.06444444444444444,-0.05000000000000000,0.10000000000000001,3.37999999999999989,8.89000000000000057,-76.09999999999999432,-76.09999999999999432,11.64264976000000118
1.75005960464477539,-85.29750184383480871,-71.28339203461763418,32.26362338548142361,0.67917968858234667,-0.00367115158135236,0.00339562077410793,0.73395500067974995,-0.00888888888888889,0.01222222222222222,-0.05000000000000000,2.24000000000000021,3.02999999999999980,7.74000000000000021,-76.09999999999999432,-76.09999999999999432,11.66241097600000032
1.76006531715393066,-84.84239510647645943,-76.73996104746794344,32.23675397399298248,0.67925446107897447,-0.00370124757940846,0.00312406342445876,0.73388685646929763,-0.00888888888888889,0.01222222222222222,-0.05000000000000000,2.24000000000000021,3.02999999999999980,7.74000000000000021,-76.09999999999999432,-76.09999999999999432,11.66241097600000032
1.77002573013305664,-84.51230304256451120,-81.87068743011276695,32.33336348521269343,0.67924055703233621,-0.00360837523031180,0.00361071509944013,0.73389795479144726,-0.00888888888888889,0.01222222222222222,-0.05000000000000000,2.24000000000000021,3.02999999999999980,7.74000000000000021,-76.09999999999999432,-76.09999999999999432,11.66241097600000032
1.78009104728698730,-83.98641153359146472,-87.35609431736702390,32.33607437621758862,0.67917888715685404,-0.00371928654208497,0.00304763517831114,0.73395702739861757,-0.00888888888888889,0.01222222222222222,-0.05000000000000000,2.24000000000000021,3.02999999999999980,7.74000000000000021,-76.09999999999999432,-76.09999999999999432,11.66241097600000032
1.79009103775024414,-83.81147728263506735,-92.87150726478459717,32.52335852536391769,0.67925520591605482,-0.00353418024618482,0.00331671231983661,0.73388614527412444,-0.00888888888888889,0.01222222222222222,-0.05000000000000000,2.24000000000000021,3.02999999999999980,7.74000000000000021,-76.09999999999999432,-76.09999999999999432,11.66241097600000032
1.80007648468017578,-83.36703851658231201,-97.87342740248999462,32.58550296266384549,0.67931960433883343,-0.00351975905783775,0.00315565178697494,0.73382731505368826,-0.00888888888888889,0.01222222222222222,-0.05000000000000000,2.24000000000000021,3.02999999999999980,7.74000000000000021,-76.09999999999999432,-76.09999999999999432,11.66241097600000032
1.80998778343200684,-82.94962750277410635,-103.30513681992216846,32.56117792251004772,0.67938983153822596,-0.00347393684120662,0.00317150363653180,0.73376244802385993,-0.03000000000000000,-0.06555555555555556,0.00888888888888889,-1.12999999999999989,2.89000000000000012,13.10999999999999943,-79.40000000000000568,-72.90000000000000568,11.68217219200000123
1.82006740570068359,-82.55089973279284266,-108.86606431887354063,32.67922214104198986,0.67964764827930257,-0.00374257363105143,0.00335226372579341,0.73352152637733992,-0.03000000000000000,-0.06555555555555556,0.00888888888888889,-1.12999999999999989,2.89000000000000012,13.10999999999999943,-79.40000000000000568,-72.90000000000000568,11.68217219200000123
1.83002996444702148,-82.24441470479362692,-113.88761003756405898,32.77864283886147945,0.67988536369875685,-0.00413973421222480,0.00331825135202543,0.73329921862553915,-0.03000000000000000,-0.06555555555555556,0.00888888888888889,-1.12999999999999989,2.89000000000000012,13.10999999999999943,-79.40000000000000568,-72.90000000000000568,11.68217219200000123
1.84004807472229004,-81.87207281811664927,-119.47830036112969765,32.79810654860089869,0.68025412802047869,-0.00381290337144886,0.00363975107825704,0.73295738981953573,-0.03000000000000000,-0.06555555555555556,0.00888888888888889,-1.12999999999999989,2.89000000000000012,13.10999999999999943,-79.40000000000000568,-72.90000000000000568,11.68217219200000123
1.85015964508056641,-81.42588412828796152,-124.54549138436512123,32.84208031157365326,0.68063933905578877,-0.00390296819186112,0.00382733129841142,0.73259825860025363,-0.03000000000000000,-0.06555555555555556,0.00888888888888889,-1.12999999999999989,2.89000000000000012,13.10999999999999943,-79.40000000000000568,-72.90000000000000568,11.68217219200000123
1.86007261276245117,-80.94845650491113531,-130.02116447367237129,32.85909356508926038,0.68099728899843315,-0.00406809958820363,0.00284296653357981,0.73226911752702950,0.01222222222222222,-0.01555555555555556,-0.02555555555555556,-1.47999999999999998,2.64000000000000012,9.09999999999999964,-97.70000000000000284,-54.50000000000000000,11.66570451199999958
1.87002658843994141,-80.68468571088524754,-135.11480870989876735,32.79972427115209399,0.68140787502206834,-0.00357492906671907,0.00303077005299354,0.73188888649368311,0.01222222222222222,-0.01555555555555556,-0.02555555555555556,-1.47999999999999998,2.64000000000000012,9.09999999999999964,-97.70000000000000284,-54.50000000000000000,11.66570451199999958
1.88009929656982422,-79.97886784132369087,-140.86293842303180668,32.97123982147304844,0.68242130493386610,-0.00372342720558183,0.00234882536528414,0.73094581309534001,0.01222222222222222,-0.01555555555555556,-0.02555555555555556,-1.47999999999999998,2.64000000000000012,9.09999999999999964,-97.70000000000000284,-54.50000000000000000,11.66570451199999958
1.89001989364624023,-79.43426691992873145,-146.54051687216829691,33.00213679814649481,0.68444581917867364,-0.00394499297128934,0.00266588432353560,0.72904818132964622,0.01222222222222222,-0.01555555555555556,-0.02555555555555556,-1.47999999999999998,2.64000000000000012,9.09999999999999964,-97.70000000000000284,-54.50000000000000000,11.66570451199999958
1.90015769004821777,-78.91564170988242211,-151.58501377999382953,32.99009502080229339,0.68660279271461211,-0.00455280476378968,0.00244678039187294,0.72701436730713387,0.01222222222222222,-0.01555555555555556,-0.02555555555555556,-1.47999999999999998,2.64000000000000012,9.09999999999999964,-97.70000000000000284,-54.50000000000000000,11.66570451199999958
1.91007661819458008,-78.47629894984167720,-157.25789323472028514,33.10198030061751240,0.68916211060556298,-0.00468256921693605,0.00238846410973182,0.72458812720773402,-0.07888888888888888,0.27000000000000002,-0.11333333333333333,1.48999999999999999,2.00000000000000000,10.99000000000000021,-100.00000000000000000,-56.00000000000000000,11.64594329600000044
1.92017483711242676,-78.08746780246265473,-162.76823577582959501,33.20690995743625962,0.69165903868833656,-0.00407980830656735,0.00194203151577771,0.72221005107828529,-0.07888888888888888,0.27000000000000002,-0.11333333333333333,1.48999999999999999,2.00000000000000000,10.99000000000000021,-100.00000000000000000,-56.00000000000000000,11.64594329600000044
1.93011927604675293,-77.76960874164143434,-167.75697602532648034,33.17823544800949520,0.69422836636765695,-0.00386872885981348,0.00154214062965547,0.71974275270389643,-0.07888888888888888,0.27000000000000002,-0.11333333333333333,1.48999999999999999,2.00000000000000000,10.99000000000000021,-100.00000000000000000,-56.00000000000000000,11.64594329600000044
1.94023561477661133,-77.16570133998475001,-173.52395751896941078,33.60339908695413413,0.69685445274531077,-0.00379649930679482,0.00127867484631659,0.71720138264833577,-0.07888888888888888,0.27000000000000002,-0.11333333333333333,1.48999999999999999,2.00000000000000000,10.99000000000000021,-100.00000000000000000,-56.00000000000000000,11.64594329600000044
1.95012354850769043,-77.18300625820667449,-178.75125318256652918,33.83582032121023531,0.69965831227364250,-0.00368335068716157,0.00235993213806729,0.71446421164003548,0.25000000000000000,-0.00777777777777778,-0.67888888888888888,-0.81999999999999995,1.84000000000000008,7.74000000000000021,-100.00000000000000000,-54.89999999999999858,11.67887865600000019
1.96011614799499512,-77.33021319599500032,-184.65484412951104787,33.52966267249819055,0.70298412207965644,-0.00357020018240344,0.00360303478940237,0.71118745483512213,0.25000000000000000,-0.00777777777777778,-0.67888888888888888,-0.81999999999999995,1.84000000000000008,7.74000000000000021,-100.00000000000000000,-54.89999999999999858,11.67887865600000019
1.97004055976867676,-77.15601789286613155,-190.45168909335950502,33.71832686838036608,0.70630227194088935,-0.00384288881805164,0.00299593412602677,0.70789360587264960,0.25000000000000000,-0.00777777777777778,-0.67888888888888888,-0.81999999999999995,1.84000000000000008,7.74000000000000021,-100.00000000000000000,-54.89999999999999858,11.67887865600000019
1.98008370399475098,-77.01206111180657388,-195.66126761098186648,33.76495629226624118,0.70903603213384581,-0.00411359820458412,0.00293820638652467,0.70515413236322544,0.25000000000000000,-0.00777777777777778,-0.67888888888888888,-0.81999999999999995,1.84000000000000008,7.74000000000000021,-100.00000000000000000,-54.89999999999999858,11.67887865600000019
1.99001908302307129,-76.96684896657951924,-201.38578642186817547,33.83549694417562392,0.71224294767259544,-0.00366521389033208,0.00298675528048590,0.70191710977200494,0.25000000000000000,-0.00777777777777778,-0.67888888888888888,-0.81999999999999995,1.84000000000000008,7.74000000000000021,-100.00000000000000000,-54.89999999999999858,11.67887865600000019
1.99994206428527832,-76.98181476769316589,-206.63333509794554743,33.91908874818096109,0.71506960532817132,-0.00376375943925431,0.00329312637207287,0.69903537032784979,0.25000000000000000,-0.00777777777777778,-0.67888888888888888,-0.81999999999999995,1.84000000000000008,7.74000000000000021,-100.00000000000000000,-54.89999999999999858,11.67887865600000019
2.00999879837036133,-77.08063503737302824,-212.22872244434253730,33.92999670805246382,0.71868193575420103,-0.00300912485961618,0.00296602320527346,0.69532612714791575,0.25000000000000000,-0.00777777777777778,-0.67888888888888888,-0.81999999999999995,1.84000000000000008,7.74000000000000021,-100.00000000000000000,-54.89999999999999858,11.67887865600000019
2.01998353004455566,-77.20662408137687294,-217.90929693849236060,33.81020687834313776,0.72222054870947638,-0.00339216552615540,0.00232877470839407,0.69165059751523605,0.09333333333333334,0.01222222222222222,-0.90777777777777779,-1.63999999999999990,1.69999999999999996,6.01999999999999957,-95.50000000000000000,-17.80000000000000071,11.67887865600000019
2.03013396263122559,-77.40324572738695963,-223.23763788388555440,33.68503864855278351,0.72555368170363388,-0.00334868325005660,0.00275896803718837,0.68815189412088540,0.09333333333333334,0.01222222222222222,-0.90777777777777779,-1.63999999999999990,1.69999999999999996,6.01999999999999957,-95.50000000000000000,-17.80000000000000071,11.67887865600000019
2.04001879692077637,-77.51803440733048944,-228.62313225246666093,33.71084484310066642,0.72934983209804127,-0.00322413807860489,0.00231369751794646,0.68412942792720510,0.09333333333333334,0.01222222222222222,-0.90777777777777779,-1.63999999999999990,1.69999999999999996,6.01999999999999957,-95.50000000000000000,-17.80000000000000071,11.67887865600000019
2.05001950263977051,-77.40319372444135126,-233.29727917702373929,33.60386662954334014,0.73286006184469898,-0.00329386659420624,0.00153951851264753,0.68036968633133021,0.09333333333333334,0.01222222222222222,-0.90777777777777779,-1.63999999999999990,1.69999999999999996,6.01999999999999957,-95.50000000000000000,-17.80000000000000071,11.67887865600000019
2.06001925468444824,-77.72662187702924541,-238.80987748757181066,33.71745626935274487,0.73751138901109969,-0.00335485289350409,0.00215992692267745,0.67532290850871513,0.03888888888888889,-0.00222222222222222,-0.93444444444444441,-3.27000000000000002,0.75000000000000000,10.32000000000000028,-83.90000000000000568,3.50000000000000000,11.63606268800000088
2.07001972198486328,-78.01210704116995487,-243.90490961192290342,33.68073931380026664,0.74194669131639257,-0.00320496096325423,0.00241653815308387,0.67044686278126187,0.03888888888888889,-0.00222222222222222,-0.93444444444444441,-3.27000000000000002,0.75000000000000000,10.32000000000000028,-83.90000000000000568,3.50000000000000000,11.63606268800000088
2.08002209663391113,-78.39483430529803343,-248.65010612463819939,33.59690770247469516,0.74616829421113540,-0.00377700818881387,0.00305612793205416,0.66573964205629899,0.03888888888888889,-0.00222222222222222,-0.93444444444444441,-3.27000000000000002,0.75000000000000000,10.32000000000000028,-83.90000000000000568,3.50000000000000000,11.63606268800000088
2.09001994132995605,-79.01471482185891659,-253.68459320208310714,33.98013906583637578,0.75069210328614322,-0.00428021849892543,0.00390270993147497,0.66062683464162975,0.03888888888888889,-0.00222222222222222,-0.93444444444444441,-3.27000000000000002,0.75000000000000000,10.32000000000000028,-83.90000000000000568,3.50000000000000000,11.63606268800000088
2.10001778602600098,-79.51099377892465725,-257.81389112188008994,33.79583726948555267,0.75467476480634521,-0.00428552424670805,0.00431670394260497,0.65607088009870618,0.00000000000000000,0.00333333333333333,-1.30888888888888899,-3.81999999999999984,5.16999999999999993,11.42999999999999972,-80.00000000000000000,10.00000000000000000,11.71181401599999994
2.11001944541931152,-80.01882569280375890,-261.86789405120680385,33.83298652583801669,0.75894015371726065,-0.00398702305153536,0.00451762034734154,0.65113250404906398,0.00000000000000000,0.00333333333333333,-1.30888888888888899,-3.81999999999999984,5.16999999999999993,11.42999999999999972,-80.00000000000000000,10.00000000000000000,11.71181401599999994
2.12008357048034668,-80.40509969756986663,-265.82871624019031742,33.73079907463093008,0.76325603869402436,-0.00423273810858467,0.00519951070145888,0.64606135034815027,0.00000000000000000,0.00333333333333333,-1.30888888888888899,-3.81999999999999984,5.16999999999999993,11.42999999999999972,-80.00000000000000000,10.00000000000000000,11.71181401599999994
2.13013386726379395,-80.52179540112096845,-268.89568019625249917,33.68095959417650676,0.76703550947374299,-0.00434163683251089,0.00461425848606183,0.64157336760077077,0.00000000000000000,0.00333333333333333,-1.30888888888888899,-3.81999999999999984,5.16999999999999993,11.42999999999999972,-80.00000000000000000,10.00000000000000000,11.71181401599999994
2.14001870155334473,-80.66736523555910310,-272.04129888966923545,33.69434038680804377,0.77174230643151465,-0.00361982677135186,0.00417939232255706,0.63591134759314194,0.00000000000000000,0.00333333333333333,-1.30888888888888899,-3.81999999999999984,5.16999999999999993,11.42999999999999972,-80.00000000000000000,10.00000000000000000,11.71181401599999994
2.15001940727233887,-81.02723955262560196,-274.94718750165549181,33.53682216770077673,0.77588767192116914,-0.00322259984982175,0.00418754275313342,0.63084895172826172,0.03333333333333333,0.06777777777777778,-1.33000000000000007,5.42999999999999972,2.10999999999999988,9.28999999999999915,-80.00000000000000000,10.00000000000000000,11.70522694399999963
2.16002559661865234,-81.41523381225472633,-277.93547579785951029,33.63666476211822953,0.78052317139604732,-0.00318647350812096,0.00338931027841407,0.62510954070168778,0.03333333333333333,0.06777777777777778,-1.33000000000000007,5.42999999999999972,2.10999999999999988,9.28999999999999915,-80.00000000000000000,10.00000000000000000,11.70522694399999963
2.17001867294311523,-81.88151389910895261,-280.84140409093362223,33.67676725407989125,0.78532018275172510,-0.00314159874314630,0.00329635561135615,0.61907307723710403,0.03333333333333333,0.06777777777777778,-1.33000000000000007,5.42999999999999972,2.10999999999999988,9.28999999999999915,-80.00000000000000000,10.00000000000000000,11.70522694399999963
2.18012857437133789,-82.32817794129748279,-283.70815679214769034,33.76391778907497354,0.78979915430004666,-0.00360514310271077,0.00339391142988482,0.61334556342680613,0.03333333333333333,0.06777777777777778,-1.33000000000000007,5.42999999999999972,2.10999999999999988,9.28999999999999915,-80.00000000000000000,10.00000000000000000,11.70522694399999963
2.19002056121826172,-82.74740383580214598,-286.47516368804264175,33.71063974023372367,0.79478028756397689,-0.00403433611328780,0.00305352614982923,0.60687617732936183,0.03333333333333333,0.06777777777777778,-1.33000000000000007,5.42999999999999972,2.10999999999999988,9.28999999999999915,-80.00000000000000000,10.00000000000000000,11.70522694399999963
2.20002174377441406,-83.34781005315028324,-288.84796281256166139,33.73817631910355175,0.79926510096582637,-0.00414737009996240,0.00313319452854385,0.60095613882494592,0.01666666666666667,-0.00888888888888889,-1.50444444444444447,2.64999999999999991,2.68000000000000016,9.44999999999999929,-80.00000000000000000,10.00000000000000000,11.67887865600000019
2.21002221107482910,-84.08919599966201019,-291.40579018739902040,33.59521453651003497,0.80420235958563746,-0.00398983757929924,0.00354484786386072,0.59433162467313327,0.01666666666666667,-0.00888888888888889,-1.50444444444444447,2.64999999999999991,2.68000000000000016,9.44999999999999929,-80.00000000000000000,10.00000000000000000,11.67887865600000019
2.22004866600036621,-84.58589208698550976,-293.93652583457532046,33.52058475457008768,0.80932009667513360,-0.00357453575559715,0.00365801176332367,0.58734557354407957,0.01666666666666667,-0.00888888888888889,-1.50444444444444447,2.64999999999999991,2.68000000000000016,9.44999999999999929,-80.00000000000000000,10.00000000000000000,11.67887865600000019
2.23008394241333008,-85.02589483852794672,-296.09865520633860569,33.23899005654259753,0.81359010248130070,-0.00310193046003119,0.00396251368743348,0.58141708063761299,0.01666666666666667,-0.00888888888888889,-1.50444444444444447,2.64999999999999991,2.68000000000000016,9.44999999999999929,-80.00000000000000000,10.00000000000000000,11.67887865600000019
2.24002265930175781,-85.50067452502348431,-298.64491669459818013,33.16092028850116691,0.81853910238233474,-0.00276428518314636,0.00395791515504511,0.57443052800680150,0.01666666666666667,-0.00888888888888889,-1.50444444444444447,2.64999999999999991,2.68000000000000016,9.44999999999999929,-80.00000000000000000,10.00000000000000000,11.67887865600000019
2.25000786781311035,-85.99532348157993056,-300.86626916566751788,33.38396361057554174,0.82280483795797099,-0.00329607528672832,0.00340473046851280,0.56830426914734478,0.07444444444444444,0.08777777777777777,-1.70555555555555549,2.50999999999999979,1.51000000000000001,7.25999999999999979,-80.00000000000000000,10.00000000000000000,11.70193340800000037
2.26002097129821777,-86.66257517140259381,-303.47043585159661916,33.41434782068607490,0.82761389439566013,-0.00345966388639436,0.00332776942007412,0.56127729196871035,0.07444444444444444,0.08777777777777777,-1.70555555555555549,2.50999999999999979,1.51000000000000001,7.25999999999999979,-80.00000000000000000,10.00000000000000000,11.70193340800000037
2.26998710632324219,-87.25795919813144508,-305.73770936738384307,33.36254078741922768,0.83177036152758044,-0.00334292047708157,0.00346653622683294,0.55509897648396889,0.07444444444444444,0.08777777777777777,-1.70555555555555549,2.50999999999999979,1.51000000000000001,7.25999999999999979,-80.00000000000000000,10.00000000000000000,11.70193340800000037
2.28013658523559570,-88.68328777885385250,-308.11407032518212645,33.32665845790973691,0.83667439852586267,-0.00382114709721070,0.00453463613034204,0.54766850079351204,0.07444444444444444,0.08777777777777777,-1.70555555555555549,2.50999999999999979,1.51000000000000001,7.25999999999999979,-80.00000000000000000,10.00000000000000000,11.70193340800000037
2.29002237319946289,-89.28522468005148482,-310.11353157973036332,33.44751246237799336,0.84101710223262460,-0.00357883386156486,0.00316987965858020,0.54098740980117144,0.07444444444444444,0.08777777777777777,-1.70555555555555549,2.50999999999999979,1.51000000000000001,7.25999999999999979,-80.00000000000000000,10.00000000000000000,11.70193340800000037
2.30001950263977051,-90.06002521775717184,-311.91254204838065789,33.29422614734480135,0.84520392094372776,-0.00293114171127708,0.00298070980089330,0.53442759640450788,0.05555555555555555,-0.00111111111111111,-1.67888888888888888,0.34000000000000002,1.75000000000000000,8.21000000000000085,-80.00000000000000000,10.00000000000000000,11.70193340800000037
2.31002545356750488,-90.90279646289205573,-313.85751643628839247,33.10098862860555613,0.85009806240770691,-0.00202278638212273,0.00238093694109817,0.52661515717381058,0.05555555555555555,-0.00111111111111111,-1.67888888888888888,0.34000000000000002,1.75000000000000000,8.21000000000000085,-80.00000000000000000,10.00000000000000000,11.70193340800000037
2.32002425193786621,-91.65226865518344823,-316.07089191443827758,33.05017763939179787,0.85484018248357196,-0.00129147134884783,0.00189103821160867,0.51888632520783484,0.05555555555555555,-0.00111111111111111,-1.67888888888888888,0.34000000000000002,1.75000000000000000,8.21000000000000085,-80.00000000000000000,10.00000000000000000,11.70193340800000037
2.33009529113769531,-92.45364754518122652,-318.63037651770548564,32.83954295345559871,0.85880019130006757,-0.00130273816821367,0.00275495009899493,0.51230161481902869,0.05555555555555555,-0.00111111111111111,-1.67888888888888888,0.34000000000000002,1.75000000000000000,8.21000000000000085,-80.00000000000000000,10.00000000000000000,11.70193340800000037
2.34002757072448730,-93.66079945174941201,-321.41510960172394107,32.96731192754105422,0.86277755996364958,-0.00190055009762940,0.00339296162413597,0.50556874680295882,0.05555555555555555,-0.00111111111111111,-1.67888888888888888,0.34000000000000002,1.75000000000000000,8.21000000000000085,-80.00000000000000000,10.00000000000000000,11.70193340800000037
2.35001850128173828,-94.57427065420169754,-323.94031875159970468,33.25828216010407345,0.86620327567597355,-0.00295231893859697,0.00288452490209595,0.49967474274490548,0.08555555555555555,0.07444444444444444,-1.70999999999999996,-1.14999999999999991,2.00999999999999979,9.89000000000000057,-80.00000000000000000,10.00000000000000000,11.54713721600000120
2.36001992225646973,-95.79904655130492586,-326.44246839535571780,33.36524812818257857,0.86999425098527716,-0.00348564566597433,0.00336193063412503,0.49303808265616683,0.08555555555555555,0.07444444444444444,-1.70999999999999996,-1.14999999999999991,2.00999999999999979,9.89000000000000057,-80.00000000000000000,10.00000000000000000,11.54713721600000120
2.36999893188476562,-96.90489244639691435,-328.86921469998651446,33.28280004479503873,0.87358783383271965,-0.00362964125019282,0.00403718562601939,0.48663623315169607,0.08555555555555555,0.07444444444444444,-1.70999999999999996,-1.14999999999999991,2.00999999999999979,9.89000000000000057,-80.00000000000000000,10.00000000000000000,11.54713721600000120
2.38011264801025391,-98.21962186835501996,-331.41400520231945848,32.96232246997747239,0.87770380629029521,-0.00329253943781014,0.00555512367771412,0.47916002359180965,0.08555555555555555,0.07444444444444444,-1.70999999999999996,-1.14999999999999991,2.00999999999999979,9.89000000000000057,-80.00000000000000000,10.00000000000000000,11.54713721600000120
2.39001822471618652,-99.36398194911940607,-333.73601197506422977,32.96918540573816614,0.88172683623586379,-0.00306849644090680,0.00558188372833107,0.47171730216850177,0.08555555555555555,0.07444444444444444,-1.70999999999999996,-1.14999999999999991,2.00999999999999979,9.89000000000000057,-80.00000000000000000,10.00000000000000000,11.54713721600000120
2.40001916885375977,-100.68869815549187763,-335.88415279479301034,32.76699928807800433,0.88512783358126568,-0.00304637167069182,0.00638145776909286,0.46529422394450609,0.08555555555555555,0.07444444444444444,-1.70999999999999996,-1.14999999999999991,2.00999999999999979,9.89000000000000057,-80.00000000000000000,10.00000000000000000,11.54713721600000120
2.41002321243286133,-102.26406150993766175,-337.98273957450487615,32.60160253012407594,0.88879009410894372,-0.00256692459639982,0.00676319135725711,0.45825739356239142,0.00777777777777778,0.05111111111111111,-1.63333333333333330,-4.50000000000000000,2.83000000000000007,13.69999999999999929,-80.00000000000000000,10.00000000000000000,11.66570451199999958
2.42002892494201660,-103.54305988790947879,-340.41968899690590433,32.69696063428038713,0.89247552550394182,-0.00310300013425238,0.00672433479008110,0.45103502201964363,0.00777777777777778,0.05111111111111111,-1.63333333333333330,-4.50000000000000000,2.83000000000000007,13.69999999999999929,-80.00000000000000000,10.00000000000000000,11.66570451199999958
2.43016600608825684,-104.75132574742222857,-342.50467116102248610,32.73892082859784836,0.89583501824833478,-0.00333926762845446,0.00668413450419702,0.44432397157664272,0.00777777777777778,0.05111111111111111,-1.63333333333333330,-4.50000000000000000,2.83000000000000007,13.69999999999999929,-80.00000000000000000,10.00000000000000000,11.66570451199999958
2.44011521339416504,-106.30770698270323749,-344.70288381778681241,32.71469677297520917,0.89948203505206525,-0.00333821060440977,0.00665319500903749,0.43689433501102748,0.00777777777777778,0.05111111111111111,-1.63333333333333330,-4.50000000000000000,2.83000000000000007,13.69999999999999929,-80.00000000000000000,10.00000000000000000,11.66570451199999958
2.45011281967163086,-107.70062302234016727,-346.64848833462264110,32.61682312551461393,0.90272639208712313,-0.00294741473451538,0.00709836582713207,0.43014647154002478,0.06222222222222222,0.08111111111111111,-1.64222222222222225,-0.68000000000000005,1.87000000000000011,10.16999999999999993,-80.00000000000000000,10.00000000000000000,11.68875926399999976
2.46011829376220703,-109.31580881448286391,-348.68410281980368381,32.67128859330969703,0.90612772619070425,-0.00278578584274400,0.00713455762138608,0.42293484286973720,0.06222222222222222,0.08111111111111111,-1.64222222222222225,-0.68000000000000005,1.87000000000000011,10.16999999999999993,-80.00000000000000000,10.00000000000000000,11.68875926399999976
2.47012472152709961,-110.46248040306817018,-350.76051418678298432,32.60761717605815591,0.90929989630166086,-0.00255631354087351,0.00719186846196877,0.41607143722550188,0.06222222222222222,0.08111111111111111,-1.64222222222222225,-0.68000000000000005,1.87000000000000011,10.16999999999999993,-80.00000000000000000,10.00000000000000000,11.68875926399999976
2.48008370399475098,-112.16417042319615405,-352.91982021026046823,32.54180103369637322,0.91270398892245275,-0.00228744497958893,0.00735519281336989,0.40854876984172533,0.06222222222222222,0.08111111111111111,-1.64222222222222225,-0.68000000000000005,1.87000000000000011,10.16999999999999993,-80.00000000000000000,10.00000000000000000,11.68875926399999976
2.49011898040771484,-113.50955974345838229,-355.19155186915537570,32.81222300126831470,0.91603410908147120,-0.00321861033059801,0.00637929839163283,0.40103672662099915,0.06222222222222222,0.08111111111111111,-1.64222222222222225,-0.68000000000000005,1.87000000000000011,10.16999999999999993,-80.00000000000000000,10.00000000000000000,11.68875926399999976
2.50011301040649414,-115.07232446392454506,-357.15047336016073132,32.89778404451890736,0.91912020133696348,-0.00362880726628212,0.00628767299761187,0.39391033550847454,0.05777777777777778,0.04777777777777778,-1.67666666666666675,0.34999999999999998,2.00000000000000000,9.92999999999999972,-80.00000000000000000,10.00000000000000000,11.69863987200000111
2.51012015342712402,-116.86650340861571351,-359.05200016129356300,32.89200063196886248,0.92240091759155296,-0.00307509740790878,0.00691007905523094,0.38615973613213977,0.05777777777777778,0.04777777777777778,-1.67666666666666675,0.34999999999999998,2.00000000000000000,9.92999999999999972,-80.00000000000000000,10.00000000000000000,11.69863987200000111
2.52030444145202637,-118.54789198171935993,-361.09933189764774397,32.86085960162200337,0.92564975615716383,-0.00268465714580947,0.00668963727238075,0.37831279425279285,0.05777777777777778,0.04777777777777778,-1.67666666666666675,0.34999999999999998,2.00000000000000000,9.92999999999999972,-80.00000000000000000,10.00000000000000000,11.69863987200000111
2.53008294105529785,-120.11203513013873589,-362.98824280899913219,32.95629010086000932,0.92847594789944310,-0.00314235044092823,0.00601700676954550,0.37133049354378694,0.05777777777777778,0.04777777777777778,-1.67666666666666675,0.34999999999999998,2.00000000000000000,9.92999999999999972,-80.00000000000000000,10.00000000000000000,11.69863987200000111
2.54013085365295410,-122.01321500314774937,-364.99996056617510476,33.03873697802384868,0.93161113580979482,-0.00312234346772165,0.00622820350071705,0.36338980735239063,0.05777777777777778,0.04777777777777778,-1.67666666666666675,0.34999999999999998,2.00000000000000000,9.92999999999999972,-80.00000000000000000,10.00000000000000000,11.69863987200000111
2.55003476142883301,-123.76891575953453639,-366.71708374150512100,32.96743529535369532,0.93426064344125725,-0.00259097362501436,0.00628083840482821,0.35652613935213107,0.05777777777777778,0.04777777777777778,-1.67666666666666675,0.34999999999999998,2.00000000000000000,9.92999999999999972,-80.00000000000000000,10.00000000000000000,11.69863987200000111
2.56004858016967773,-125.82211693817593812,-368.93296466191594618,33.29507782466313159,0.93712487985729864,-0.00350717471158064,0.00613178393505152,0.34892271422731924,0.03000000000000000,-0.00222222222222222,-1.67444444444444440,-0.95999999999999996,1.68999999999999995,10.38000000000000078,-80.00000000000000000,10.00000000000000000,11.67558512000000093
2.57004189491271973,-128.07519953152845460,-370.95771632071006252,33.31661493465866641,0.93996633852316502,-0.00371773513753955,0.00674118034232256,0.34118032970321382,0.03000000000000000,-0.00222222222222222,-1.67444444444444440,-0.95999999999999996,1.68999999999999995,10.38000000000000078,-80.00000000000000000,10.00000000000000000,11.67558512000000093
2.58005809783935547,-129.91076060669740855,-372.56501001568045695,33.24858601650471002,0.94260040964304548,-0.00315389985600305,0.00737773298194553,0.33382643650931598,0.03000000000000000,-0.00222222222222222,-1.67444444444444440,-0.95999999999999996,1.68999999999999995,10.38000000000000078,-80.00000000000000000,10.00000000000000000,11.67558512000000093
2.59005260467529297,-131.56232994196741970,-374.51865297302509816,33.47718371333996146,0.94541132783496917,-0.00424506892132796,0.00639735992512840,0.32578900284871737,0.03000000000000000,-0.00222222222222222,-1.67444444444444440,-0.95999999999999996,1.68999999999999995,10.38000000000000078,-80.00000000000000000,10.00000000000000000,11.67558512000000093
2.59994387626647949,-133.09861000693152278,-376.26335326292638683,33.52740088914695349,0.94785304283368599,-0.00434590097580901,0.00577993297082318,0.31862566549241333,0.06222222222222222,-0.01111111111111111,-1.67777777777777781,0.42999999999999999,1.55000000000000004,9.92999999999999972,-80.00000000000000000,10.00000000000000000,11.69205280000000080
2.61000370979309082,-135.11824256293536450,-377.92372690939060931,33.47444536051069264,0.95048628474341557,-0.00421129001899646,0.00567767688845565,0.31068609807357833,0.06222222222222222,-0.01111111111111111,-1.67777777777777781,0.42999999999999999,1.55000000000000004,9.92999999999999972,-80.00000000000000000,10.00000000000000000,11.69205280000000080
2.62001061439514160,-136.90300978976432589,-379.46691919474488941,33.40247745486040998,0.95283671838003092,-0.00376390734939917,0.00604475817621668,0.30339987146805103,0.06222222222222222,-0.01111111111111111,-1.67777777777777781,0.42999999999999999,1.55000000000000004,9.92999999999999972,-80.00000000000000000,10.00000000000000000,11.69205280000000080
2.63014864921569824,-138.97550996034490822,-381.34064694352986180,33.51905539488635810,0.95534074101526467,-0.00365916916415669,0.00609084756760454,0.29542102263268444,0.06222222222222222,-0.01111111111111111,-1.67777777777777781,0.42999999999999999,1.55000000000000004,9.92999999999999972,-80.00000000000000000,10.00000000000000000,11.69205280000000080
2.63998746871948242,-141.69412798480698257,-383.20470041672183470,33.55638508232392070,0.95773826670920659,-0.00371730841191484,0.00753896898596238,0.28751827428120841,0.06222222222222222,-0.01111111111111111,-1.67777777777777781,0.42999999999999999,1.55000000000000004,9.92999999999999972,-80.00000000000000000,10.00000000000000000,11.69205280000000080
2.65003466606140137,-143.53055881432089791,-384.67279091982101136,33.53507515204591272,0.95980847537646941,-0.00358209639468581,0.00816665866959259,0.28051410814269345,0.06222222222222222,-0.01111111111111111,-1.67777777777777781,0.42999999999999999,1.55000000000000004,9.92999999999999972,-80.00000000000000000,10.00000000000000000,11.69205280000000080
2.66002058982849121,-145.91634901276415803,-386.34322859068146272,33.60511309013188708,0.96204046418938793,-0.00382713529355496,0.00924678534395055,0.27272329430856235,0.03222222222222222,0.01666666666666667,-1.66666666666666674,-1.63999999999999990,2.14000000000000012,11.97000000000000064,-80.00000000000000000,10.00000000000000000,11.67887865600000019
2.67000818252563477,-147.75890294622075771,-387.67679691368874728,33.56269616523187693,0.96435817777298749,-0.00391320155097314,0.00827646586230471,0.26444184980599139,0.03222222222222222,0.01666666666666667,-1.66666666666666674,-1.63999999999999990,2.14000000000000012,11.97000000000000064,-80.00000000000000000,10.00000000000000000,11.67887865600000019
2.68006300926208496,-149.43914849215414620,-388.89849860869253462,33.50945669877848587,0.96639407594517901,-0.00327990657237331,0.00758637568943580,0.25693224611721793,0.03222222222222222,0.01666666666666667,-1.66666666666666674,-1.63999999999999990,2.14000000000000012,11.97000000000000064,-80.00000000000000000,10.00000000000000000,11.67887865600000019
2.69002318382263184,-151.55869271249221697,-390.46142397969987314,33.71075668616375509,0.96856496006992343,-0.00367583378511398,0.00697646857906952,0.24863574814756051,0.03222222222222222,0.01666666666666667,-1.66666666666666674,-1.63999999999999990,2.14000000000000012,11.97000000000000064,-80.00000000000000000,10.00000000000000000,11.67887865600000019
2.70002126693725586,-153.51881152978725709,-391.69045572042051617,33.80627885041962344,0.97044162796495081,-0.00342712053651979,0.00640301993076337,0.24122666289888098,0.03222222222222222,0.01666666666666667,-1.66666666666666674,-1.63999999999999990,2.14000000000000012,11.97000000000000064,-80.00000000000000000,10.00000000000000000,11.67887865600000019
2.71002125740051270,-155.50945649232735946,-393.11884873918415906,33.94630396323584165,0.97253587534938568,-0.00358323443397104,0.00558916710091261,0.23265831771186052,0.03222222222222222,0.01666666666666667,-1.66666666666666674,-1.63999999999999990,2.14000000000000012,11.97000000000000064,-80.00000000000000000,10.00000000000000000,11.67887865600000019
2.72004771232604980,-157.93828446285530731,-394.49942418250930132,33.91386589070037161,0.97445135265646432,-0.00325994112360557,0.00623183540381264,0.22448852602607142,0.01333333333333333,-0.00444444444444444,-1.69333333333333336,-0.65000000000000002,1.92999999999999994,8.58999999999999986,-95.09999999999999432,-27.19999999999999929,11.68546572800000050
2.73009395599365234,-159.95375310226381771,-395.50914388475280248,33.88699745160738530,0.97611391754427934,-0.00269841589066281,0.00614581172627050,0.21715562973652355,0.01333333333333333,-0.00444444444444444,-1.69333333333333336,-0.65000000000000002,1.92999999999999994,8.58999999999999986,-95.09999999999999432,-27.19999999999999929,11.68546572800000050
2.74005913734436035,-162.68523409835512439,-396.48340578982146098,33.53368491740145174,0.97807358113498899,-0.00192440879355057,0.00627410024579463,0.20815619664732310,0.01333333333333333,-0.00444444444444444,-1.69333333333333336,-0.65000000000000002,1.92999999999999994,8.58999999999999986,-95.09999999999999432,-27.19999999999999929,11.68546572800000050
2.75016856193542480,-165.10477407616622259,-397.77602892380537014,33.35542587546966331,0.97965944876814071,-0.00256751127049529,0.00668212222374894,0.20053957606359338,0.01333333333333333,-0.00444444444444444,-1.69333333333333336,-0.65000000000000002,1.92999999999999994,8.58999999999999986,-95.09999999999999432,-27.19999999999999929,11.68546572800000050
2.76005578041076660,-167.92731304497124256,-399.18453389982761337,33.54689221767431917,0.98127900369698340,-0.00275024854934876,0.00721394554255144,0.19243677410017399,0.01333333333333333,-0.00444444444444444,-1.69333333333333336,-0.65000000000000002,1.92999999999999994,8.58999999999999986,-95.09999999999999432,-27.19999999999999929,11.68546572800000050
2.76998591423034668,-170.94354123386173683,-400.44501779202931857,33.52010530959677936,0.98267664516639597,-0.00255602246836332,0.00770017225762439,0.18515070926372729,0.01333333333333333,-0.00444444444444444,-1.69333333333333336,-0.65000000000000002,1.92999999999999994,8.58999999999999986,-95.09999999999999432,-27.19999999999999929,11.68546572800000050
2.78000950813293457,-174.13011362274812655,-402.08687539606830796,33.59751560713893781,0.98411681612317625,-0.00255512570073430,0.00833958089207029,0.17730768439856318,0.04888888888888889,0.00333333333333333,-1.71333333333333337,2.16000000000000014,1.96999999999999997,12.82000000000000028,-100.00000000000000000,-52.70000000000000284,11.66570451199999958
2.79001212120056152,-177.49869664392988966,-403.70800717941409630,33.79543360319819811,0.98544476045018869,-0.00269007337492012,0.00808227266342475,0.16978240331406974,0.04888888888888889,0.00333333333333333,-1.71333333333333337,2.16000000000000014,1.96999999999999997,12.82000000000000028,-100.00000000000000000,-52.70000000000000284,11.66570451199999958
2.79998087882995605,-181.13825584222752241,-405.24984564146183175,33.76661861380936358,0.98652430843530525,-0.00271579750019495,0.00861374046195382,0.16336528635372635,0.04888888888888889,0.00333333333333333,-1.71333333333333337,2.16000000000000014,1.96999999999999997,12.82000000000000028,-100.00000000000000000,-52.70000000000000284,11.66570451199999958
2.81001305580139160,-185.28698538993725720,-407.19005595451147883,33.96035734217800695,0.98759640871095677,-0.00336021158739174,0.00898695401693145,0.15672037881783599,0.04888888888888889,0.00333333333333333,-1.71333333333333337,2.16000000000000014,1.96999999999999997,12.82000000000000028,-100.00000000000000000,-52.70000000000000284,11.66570451199999958
2.81998443603515625,-188.79268314393189598,-408.77439087844732057,34.26988238407778198,0.98862348720358539,-0.00398303536178106,0.00801466315295137,0.15014493382486790,0.01666666666666667,0.11666666666666667,-1.70333333333333337,-4.41000000000000014,3.08999999999999986,8.22000000000000064,-100.00000000000000000,-65.79999999999999716,11.62947561600000057
2.83011031150817871,-193.75952320881233959,-410.73155856437932698,34.40045080685972323,0.98959135163150569,-0.00392319082674742,0.00908891264803762,0.14356516644626022,0.01666666666666667,0.11666666666666667,-1.70333333333333337,-4.41000000000000014,3.08999999999999986,8.22000000000000064,-100.00000000000000000,-65.79999999999999716,11.62947561600000057
2.83998727798461914,-198.24183066917422025,-412.27387930708056274,34.51649832842299759,0.99047151518442378,-0.00369219221525919,0.00831527214010406,0.13741688969756694,0.01666666666666667,0.11666666666666667,-1.70333333333333337,-4.41000000000000014,3.08999999999999986,8.22000000000000064,-100.00000000000000000,-65.79999999999999716,11.62947561600000057
2.84997725486755371,-203.12593190786228092,-413.70695905048302166,34.72771268635986530,0.99105728459014197,-0.00317324747939851,0.00927623946465839,0.13307644623539902,0.01666666666666667,0.11666666666666667,-1.70333333333333337,-4.41000000000000014,3.08999999999999986,8.22000000000000064,-100.00000000000000000,-65.79999999999999716,11.62947561600000057
2.86000180244445801,-208.01565528276401551,-415.24787070033130476,34.77504826199857035,0.99174873777403239,-0.00331522015098349,0.00817501742068489,0.12789300031329201,0.02888888888888889,-0.06555555555555556,-1.43666666666666676,-3.52999999999999980,2.79999999999999982,12.71000000000000085,-100.00000000000000000,-74.40000000000000568,11.62618208000000131
2.86997628211975098,-212.75951040187467811,-416.35943725577726582,34.75526902662244311,0.99223720756624045,-0.00296322939042708,0.00727274044216903,0.12411144362704807,0.02888888888888889,-0.06555555555555556,-1.43666666666666676,-3.52999999999999980,2.79999999999999982,12.71000000000000085,-100.00000000000000000,-74.40000000000000568,11.62618208000000131
2.87997555732727051,-218.22278706973827411,-417.53643194704318375,34.62697105544734910,0.99267811011339790,-0.00244229441251760,0.00666383552312942,0.12058108556409521,0.02888888888888889,-0.06555555555555556,-1.43666666666666676,-3.52999999999999980,2.79999999999999982,12.71000000000000085,-100.00000000000000000,-74.40000000000000568,11.62618208000000131
2.89003014564514160,-223.98504878106481897,-418.99184621247042060,34.81821443132881200,0.99307722428854395,-0.00239405583964855,0.00598434884411785,0.11728632769811494,0.02888888888888889,-0.06555555555555556,-1.43666666666666676,-3.52999999999999980,2.79999999999999982,12.71000000000000085,-100.00000000000000000,-74.40000000000000568,11.62618208000000131
2.90016293525695801,-229.84702443369204161,-420.32347809326211063,34.52299298394123639,0.99341803800969852,-0.00220735613364837,0.00611217547199357,0.11436070412016534,0.02888888888888889,-0.06555555555555556,-1.43666666666666676,-3.52999999999999980,2.79999999999999982,12.71000000000000085,-100.00000000000000000,-74.40000000000000568,11.62618208000000131
2.91003274917602539,-235.99841347569011418,-422.57522305528988227,34.94685130193599321,0.99384007263434437,-0.00404838747173732,0.00545729346584187,0.11061527260314222,0.06777777777777778,-0.00555555555555556,-0.90333333333333332,-5.08000000000000007,2.64000000000000012,13.07000000000000028,-100.00000000000000000,-75.09999999999999432,11.64264976000000118
2.92001891136169434,-242.27325922513270484,-424.45357498602038504,34.86140940938380339,0.99414394134580530,-0.00517139811995521,0.00470922908304482,0.10783739466602479,0.06777777777777778,-0.00555555555555556,-0.90333333333333332,-5.08000000000000007,2.64000000000000012,13.07000000000000028,-100.00000000000000000,-75.09999999999999432,11.64264976000000118
2.93013453483581543,-247.73570272401511261,-425.52954222303560528,34.90258525996698324,0.99442306626225341,-0.00478674734846246,0.00412347944947298,0.10527511221855657,0.06777777777777778,-0.00555555555555556,-0.90333333333333332,-5.08000000000000007,2.64000000000000012,13.07000000000000028,-100.00000000000000000,-75.09999999999999432,11.64264976000000118
2.94003391265869141,-253.97724272500352072,-426.93578954041731777,34.84368641744601547,0.99472260471597840,-0.00477557345294199,0.00420985051656817,0.10240317731341490,0.06777777777777778,-0.00555555555555556,-0.90333333333333332,-5.08000000000000007,2.64000000000000012,13.07000000000000028,-100.00000000000000000,-75.09999999999999432,11.64264976000000118
2.95002150535583496,-259.58862993591941404,-428.19087762748586101,34.92991651364544481,0.99495136268096007,-0.00448662208229795,0.00410559948423057,0.10017384975364918,0.00222222222222222,-0.06666666666666667,-0.61555555555555552,-0.39000000000000001,2.81000000000000005,10.02999999999999936,-100.00000000000000000,-75.09999999999999432,11.65911744000000105
2.96002531051635742,-265.86975073516157408,-429.57854858491594996,34.79118194578818901,0.99523155549720999,-0.00403332345619806,0.00451799981062046,0.09735230311714513,0.00222222222222222,-0.06666666666666667,-0.61555555555555552,-0.39000000000000001,2.81000000000000005,10.02999999999999936,-100.00000000000000000,-75.09999999999999432,11.65911744000000105
2.97001886367797852,-272.02128261807268927,-430.89860210802021356,34.77089795120808446,0.99550199987984611,-0.00403599673768438,0.00466953765480191,0.09453927429196213,0.00222222222222222,-0.06666666666666667,-0.61555555555555552,-0.39000000000000001,2.81000000000000005,10.02999999999999936,-100.00000000000000000,-75.09999999999999432,11.65911744000000105
2.97998666763305664,-277.64082071917908934,-431.90756838370288051,34.60276179320842971,0.99572561520143510,-0.00363328897612008,0.00494000874422932,0.09215690292401865,0.00222222222222222,-0.06666666666666667,-0.61555555555555552,-0.39000000000000001,2.81000000000000005,10.02999999999999936,-100.00000000000000000,-75.09999999999999432,11.65911744000000105
2.99001789093017578,-283.63290056781079329,-433.41860413186560663,34.69878239612551596,0.99599374965558141,-0.00375658086189416,0.00487152289126804,0.08921102517044983,0.00222222222222222,-0.06666666666666667,-0.61555555555555552,-0.39000000000000001,2.81000000000000005,10.02999999999999936,-100.00000000000000000,-75.09999999999999432,11.65911744000000105
3.00001835823059082,-289.26719528573551088,-434.56834884750509218,34.43946612742782065,0.99618960243368571,-0.00317066532456965,0.00528825407804954,0.08699573123562594,0.05222222222222223,0.07222222222222222,-0.57111111111111112,1.62000000000000011,2.81000000000000005,8.33999999999999986,-99.20000000000000284,-69.50000000000000000,11.67558512000000093
3.01000976562500000,-295.55079839842926503,-435.78413997709958494,34.36470312984538111,0.99645096500548047,-0.00292705663920758,0.00509378509171126,0.08396999483456620,0.05222222222222223,0.07222222222222222,-0.57111111111111112,1.62000000000000011,2.81000000000000005,8.33999999999999986,-99.20000000000000284,-69.50000000000000000,11.67558512000000093
3.02002668380737305,-301.55971459412540980,-436.91474342084273985,34.45537635691326273,0.99667943710137852,-0.00237779496998862,0.00512787216787765,0.08122900145508301,0.05222222222222223,0.07222222222222222,-0.57111111111111112,1.62000000000000011,2.81000000000000005,8.33999999999999986,-99.20000000000000284,-69.50000000000000000,11.67558512000000093
3.03016090393066406,-307.27118421330516185,-438.11050601631291102,34.36844180355069511,0.99688733181941347,-0.00253547851252738,0.00555408152099265,0.07860261563804201,0.05222222222222223,0.07222222222222222,-0.57111111111111112,1.62000000000000011,2.81000000000000005,8.33999999999999986,-99.20000000000000284,-69.50000000000000000,11.67558512000000093
3.04003238677978516,-313.37554288168445282,-439.17172798054235727,34.39840318763888405,0.99710882964592407,-0.00219539798013854,0.00547142948238082,0.07575767637186112,0.05222222222222223,0.07222222222222222,-0.57111111111111112,1.62000000000000011,2.81000000000000005,8.33999999999999986,-99.20000000000000284,-69.50000000000000000,11.67558512000000093
3.05001854896545410,-319.07381804786956536,-440.15620415108884345,34.35248026598981852,0.99729969754913061,-0.00220386855366311,0.00549750945560040,0.07319995643165413,0.05222222222222223,0.07222222222222222,-0.57111111111111112,1.62000000000000011,2.81000000000000005,8.33999999999999986,-99.20000000000000284,-69.50000000000000000,11.67558512000000093
3.06013345718383789,-325.42090514754073638,-440.89460201237505999,34.44687145285116259,0.99748222652287477,-0.00205378772420794,0.00524167129423278,0.07069310156581764,0.00222222222222222,0.00777777777777778,-0.56000000000000005,-0.47999999999999998,2.62999999999999989,10.53999999999999915,-100.00000000000000000,-60.50000000000000000,11.67887865600000019
3.07002735137939453,-331.86805842749708972,-441.72216087415318952,34.41079883893151248,0.99768603093939767,-0.00179286987446628,0.00534019121953382,0.06775582368876337,0.00222222222222222,0.00777777777777778,-0.56000000000000005,-0.47999999999999998,2.62999999999999989,10.53999999999999915,-100.00000000000000000,-60.50000000000000000,11.67887865600000019
3.07998561859130859,-337.44394725054775108,-442.46451117450686752,34.44244594386832858,0.99786516517998869,-0.00150193509795285,0.00503739662663915,0.06509593648224946,0.00222222222222222,0.00777777777777778,-0.56000000000000005,-0.47999999999999998,2.62999999999999989,10.53999999999999915,-100.00000000000000000,-60.50000000000000000,11.67887865600000019
3.09001040458679199,-343.52381637179905738,-443.46345581972894934,34.31552184174972098,0.99807827938142613,-0.00120432942461509,0.00529213105915273,0.06172755597382661,0.00222222222222222,0.00777777777777778,-0.56000000000000005,-0.47999999999999998,2.62999999999999989,10.53999999999999915,-100.00000000000000000,-60.50000000000000000,11.67887865600000019
3.10002255439758301,-348.92466112156489544,-444.26202907061542646,34.51778949028501842,0.99827868564460798,-0.00157285189221611,0.00494265777114836,0.05841885020056873,0.00222222222222222,0.00777777777777778,-0.56000000000000005,-0.47999999999999998,2.62999999999999989,10.53999999999999915,-100.00000000000000000,-60.50000000000000000,11.67887865600000019
3.11001181602478027,-355.11037201971203103,-445.16159202869448563,34.22042512891788846,0.99847865739316288,-0.00184047014894171,0.00541770695166500,0.05484188045064844,0.28111111111111109,-0.07555555555555556,-0.55333333333333334,-0.93000000000000005,1.41999999999999993,9.16000000000000014,-100.00000000000000000,-60.20000000000000284,11.69534633600000006
3.12002253532409668,-360.81728308777127268,-446.10123642113626374,34.52014138790030273,0.99870142306519372,-0.00240369594813372,0.00502739601428338,0.05064005433114776,0.28111111111111109,-0.07555555555555556,-0.55333333333333334,-0.93000000000000005,1.41999999999999993,9.16000000000000014,-100.00000000000000000,-60.20000000000000284,11.69534633600000006
3.13009333610534668,-366.01328625158049590,-446.74943022407114768,34.61788260243936577,0.99887533272917550,-0.00262795349504680,0.00469834765529420,0.04710720809936588,0.28111111111111109,-0.07555555555555556,-0.55333333333333334,-0.93000000000000005,1.41999999999999993,9.16000000000000014,-100.00000000000000000,-60.20000000000000284,11.69534633600000006
3.14002132415771484,-371.94635899565878390,-447.34805793306742316,34.52272677294877212,0.99904336295557961,-0.00223832699948009,0.00478631320152229,0.04341013744030622,0.28111111111111109,-0.07555555555555556,-0.55333333333333334,-0.93000000000000005,1.41999999999999993,9.16000000000000014,-100.00000000000000000,-60.20000000000000284,11.69534633600000006
3.15001916885375977,-377.29933532635374149,-447.87494184789687779,34.40387119991438425,0.99917702147847243,-0.00213388566271643,0.00495575294694217,0.04020157701031204,0.27555555555555555,0.07333333333333333,-0.74777777777777776,-0.58999999999999997,0.54000000000000004,9.27999999999999936,-100.00000000000000000,-59.39999999999999858,11.68875926399999976
3.16013216972351074,-383.02554102175628259,-448.37297697414686581,34.34415920380932619,0.99932276317004676,-0.00183046379296385,0.00522838959252286,0.03637758038619664,0.27555555555555555,0.07333333333333333,-0.74777777777777776,-0.58999999999999997,0.54000000000000004,9.27999999999999936,-100.00000000000000000,-59.39999999999999858,11.68875926399999976
3.17003536224365234,-388.82903622224620221,-448.77537656551584178,34.35002676013596812,0.99945345029946187,-0.00139025688381268,0.00533798915771020,0.03259407525994047,0.27555555555555555,0.07333333333333333,-0.74777777777777776,-0.58999999999999997,0.54000000000000004,9.27999999999999936,-100.00000000000000000,-59.39999999999999858,11.68875926399999976
3.18001198768615723,-393.85252325362375814,-449.35697659641226664,34.37233662177889926,0.99956572644648212,-0.00143853304546517,0.00526377232537915,0.02895827752302247,0.27555555555555555,0.07333333333333333,-0.74777777777777776,-0.58999999999999997,0.54000000000000004,9.27999999999999936,-100.00000000000000000,-59.39999999999999858,11.68875926399999976
3.18999123573303223,-399.79690041727712924,-449.77119362304398464,34.24017117101033136,0.99967210047919131,-0.00093203278429683,0.00565250110221644,0.02495740510750725,0.27555555555555555,0.07333333333333333,-0.74777777777777776,-0.58999999999999997,0.54000000000000004,9.27999999999999936,-100.00000000000000000,-59.39999999999999858,11.68875926399999976
3.19994091987609863,-404.99659715244803238,-450.18857004638738317,34.26004511150811283,0.99975490301034053,-0.00117988636225879,0.00555767864511737,0.02139752282472192,0.27111111111111114,-0.02000000000000000,-0.75333333333333330,-2.43000000000000016,3.04000000000000004,9.41999999999999993,-99.59999999999999432,-58.70000000000000284,11.65582390400000001
3.21000146865844727,-410.76609296815854577,-450.28174952447307078,34.32760140542070104,0.99983278380471297,-0.00056358139815769,0.00550722467629718,0.01742863395938102,0.27111111111111114,-0.02000000000000000,-0.75333333333333330,-2.43000000000000016,3.04000000000000004,9.41999999999999993,-99.59999999999999432,-58.70000000000000284,11.65582390400000001
3.22001814842224121,-413.54723521036038392,-449.93859512692097269,33.99420615173578852,0.99993415190265544,-0.00077009914389029,-0.00208483403066361,0.01125843120020008,0.27111111111111114,-0.02000000000000000,-0.75333333333333330,-2.43000000000000016,3.04000000000000004,9.41999999999999993,-99.59999999999999432,-58.70000000000000284,11.65582390400000001
3.23005008697509766,-422.10807696707706782,-450.95203434421654265,34.35353782335573669,0.99993155914896137,-0.00128387307326110,0.00622815674307932,0.00982032338786706,0.27111111111111114,-0.02000000000000000,-0.75333333333333330,-2.43000000000000016,3.04000000000000004,9.41999999999999993,-99.59999999999999432,-58.70000000000000284,11.65582390400000001
3.24006032943725586,-427.79963929795945887,-451.21166662933404723,34.10093713100408053,0.99996351320438559,-0.00136377739871998,0.00619259049866774,0.00572400157807116,0.27111111111111114,-0.02000000000000000,-0.75333333333333330,-2.43000000000000016,3.04000000000000004,9.41999999999999993,-99.59999999999999432,-58.70000000000000284,11.65582390400000001
3.25008416175842285,-432.90026919494721369,-451.75796200669338987,34.29626826936430462,0.99997896801227448,-0.00202412144514192,0.00591085722177320,0.00174018171030635,0.27111111111111114,-0.02000000000000000,-0.75333333333333330,-2.43000000000000016,3.04000000000000004,9.41999999999999993,-99.59999999999999432,-58.70000000000000284,11.65582390400000001
3.26005816459655762,-438.65515021906588800,-452.18997222699505301,34.60124612680051115,0.99997811131749981,-0.00280348796571725,0.00538917390882028,-0.00262185920520484,0.00888888888888889,-0.00888888888888889,-0.81888888888888889,-3.37000000000000011,1.76000000000000001,9.80000000000000071,-99.59999999999999432,-58.70000000000000284,11.65582390400000001
3.27008295059204102,-443.74671592884334359,-452.39156465644140326,34.44663876951040038,0.99995705082157982,-0.00299788964590833,0.00582141544693530,-0.00655898559786659,0.00888888888888889,-0.00888888888888889,-0.81888888888888889,-3.37000000000000011,1.76000000000000001,9.80000000000000071,-99.59999999999999432,-58.70000000000000284,11.65582390400000001
3.28013563156127930,-449.55360386889634583,-452.53766227163595204,34.36326248992273946,0.99991907067909802,-0.00314326889590044,0.00616117668985361,-0.01067763338447759,0.00888888888888889,-0.00888888888888889,-0.81888888888888889,-3.37000000000000011,1.76000000000000001,9.80000000000000071,-99.59999999999999432,-58.70000000000000284,11.65582390400000001
3.29009842872619629,-455.25202959177067896,-452.43123062428071535,34.26511716407677000,0.99987246109874250,-0.00340082132806648,0.00584465103711953,-0.01446844860005394,0.00888888888888889,-0.00888888888888889,-0.81888888888888889,-3.37000000000000011,1.76000000000000001,9.80000000000000071,-99.59999999999999432,-58.70000000000000284,11.65582390400000001
3.30011439323425293,-460.59175409153294822,-452.27061844198277640,34.30708338044052397,0.99980705025886407,-0.00308204241136565,0.00664992962254925,-0.01822475523179011,-0.21777777777777776,-0.06222222222222222,-0.81777777777777783,-1.01000000000000001,3.31999999999999984,10.44999999999999929,-99.59999999999999432,-58.70000000000000284,11.66899804800000062
3.31003260612487793,-466.32515773566183270,-452.13959821092936409,34.34312573837171811,0.99972240569490134,-0.00271127586178973,0.00660766803405437,-0.02245215486211853,-0.21777777777777776,-0.06222222222222222,-0.81777777777777783,-1.01000000000000001,3.31999999999999984,10.44999999999999929,-99.59999999999999432,-58.70000000000000284,11.66899804800000062
3.32001757621765137,-471.91923870853958078,-452.20828678216759045,34.36145432700312341,0.99961721236210388,-0.00297291701036144,0.00631351683747149,-0.02677181389089963,-0.21777777777777776,-0.06222222222222222,-0.81777777777777783,-1.01000000000000001,3.31999999999999984,10.44999999999999929,-99.59999999999999432,-58.70000000000000284,11.66899804800000062
3.33011746406555176,-477.15594501163349150,-451.71718365177031274,34.42229279127085562,0.99951276591261762,-0.00212649360016196,0.00651046408524417,-0.03045197300787715,-0.21777777777777776,-0.06222222222222222,-0.81777777777777783,-1.01000000000000001,3.31999999999999984,10.44999999999999929,-99.59999999999999432,-58.70000000000000284,11.66899804800000062
3.34009528160095215,-482.85729233105143976,-451.33161699700150393,34.67397007300188960,0.99939045139918259,-0.00192017382347856,0.00615250414140729,-0.03431013374232712,-0.21777777777777776,-0.06222222222222222,-0.81777777777777783,-1.01000000000000001,3.31999999999999984,10.44999999999999929,-99.59999999999999432,-58.70000000000000284,11.66899804800000062
3.35012054443359375,-487.93303323799659665,-450.83859600787269528,34.68625583727719430,0.99925945840638075,-0.00143412860146499,0.00574380994626462,-0.03801955691275560,0.10555555555555556,0.00777777777777778,-0.86222222222222222,2.14999999999999991,2.52999999999999980,4.91000000000000014,-99.59999999999999432,-58.70000000000000284,11.68546572800000050
3.36012864112854004,-493.67366048641656562,-450.39182334014282105,34.89091589206979194,0.99911003199893023,-0.00118392675480070,0.00562805673486192,-0.04178596958220646,0.10555555555555556,0.00777777777777778,-0.86222222222222222,2.14999999999999991,2.52999999999999980,4.91000000000000014,-99.59999999999999432,-58.70000000000000284,11.68546572800000050
3.37026453018188477,-499.41710680391219057,-450.12674563725369126,34.95844294530242280,0.99893190717710978,-0.00146805367844850,0.00555708828744856,-0.04584766528041028,0.10555555555555556,0.00777777777777778,-0.86222222222222222,2.14999999999999991,2.52999999999999980,4.91000000000000014,-99.59999999999999432,-58.70000000000000284,11.68546572800000050
3.38007712364196777,-504.52692396960486576,-449.69435565248528519,34.90073631549794442,0.99874233835553994,-0.00132920819430640,0.00576075486713868,-0.04978743300317434,0.10555555555555556,0.00777777777777778,-0.86222222222222222,2.14999999999999991,2.52999999999999980,4.91000000000000014,-99.59999999999999432,-58.70000000000000284,11.68546572800000050
