t,x,y,z,q0,q1,q2,q3,wx,wy,wz,ax,ay,az,dutyR,dutyL,Vbatt
0.00000000000000000,11.51133179201863754,78.93217867355173212,31.25508756685102796,0.10438609749014452,-0.64908081232952131,0.60209034785033722,0.45308371714496731,0.00000000000000000,0.00000000000000000,0.00000000000000000,0.00000000000000000,0.00000000000000000,0.00000000000000000,0.00000000000000000,0.00000000000000000,0.00000000000000000
0.01004338264465332,11.51133179201863754,78.93217867355173212,31.25508756685102796,0.62555558912550391,-0.00255280557277270,0.00439212943771180,0.78016305814653497,0.00000000000000000,0.00000000000000000,0.00000000000000000,0.00000000000000000,0.00000000000000000,0.00000000000000000,0.00000000000000000,0.00000000000000000,0.00000000000000000
0.01999855041503906,11.44210036894800453,78.94172454131467020,31.31774503337071636,0.62559710726669693,-0.00247816625205797,0.00437584701269339,0.78013009814676992,0.00000000000000000,0.00000000000000000,0.00000000000000000,0.00000000000000000,0.00000000000000000,0.00000000000000000,0.00000000000000000,0.00000000000000000,0.00000000000000000
0.02999734878540039,11.48776021438851558,78.95243932807915144,31.32451470439793084,0.62556220204722179,-0.00255102681520695,0.00417585373821036,0.78015894911074102,0.00000000000000000,0.00000000000000000,0.00000000000000000,0.00000000000000000,0.00000000000000000,0.00000000000000000,0.00000000000000000,0.00000000000000000,0.00000000000000000
0.03998422622680664,11.47554528918726646,78.92646906422477571,31.30576270321272503,0.62556297863865096,-0.00255282096121118,0.00433468660921645,0.78015745420644333,0.00000000000000000,0.00000000000000000,0.00000000000000000,0.00000000000000000,0.00000000000000000,0.00000000000000000,0.00000000000000000,0.00000000000000000,0.00000000000000000
0.05007123947143555,11.49099419617824047,78.90705529670266571,31.31819743643664822,0.62554613644136092,-0.00262230834460968,0.00426604709195727,0.78017110656857902,0.00000000000000000,0.00000000000000000,0.00000000000000000,0.00000000000000000,0.00000000000000000,0.00000000000000000,0.00000000000000000,0.00000000000000000,0.00000000000000000
0.06001067161560059,11.46392543480011206,78.91973069643314886,31.29741311292144701,0.62554212423850164,-0.00258809110055831,0.00434735120343241,0.78017398900831902,0.00000000000000000,0.00000000000000000,0.00000000000000000,0.00000000000000000,0.00000000000000000,0.00000000000000000,0.00000000000000000,0.00000000000000000,0.00000000000000000
0.06999564170837402,11.44896358664117564,78.88973274735303676,31.30741321903087382,0.62553800521847325,-0.00255195306335167,0.00450476424930716,0.78017651763041052,0.00000000000000000,0.00000000000000000,0.00000000000000000,0.00000000000000000,0.00000000000000000,0.00000000000000000,0.00000000000000000,0.00000000000000000,0.00000000000000000
0.07999134063720703,11.46553134214408942,78.89436084172301378,31.33524362019691978,0.62552508201547674,-0.00259601683085798,0.00429741888916662,0.78018790342906275,0.00000000000000000,0.00000000000000000,0.00000000000000000,0.00000000000000000,0.00000000000000000,0.00000000000000000,0.00000000000000000,0.00000000000000000,0.00000000000000000
0.08997106552124023,11.45763777991819587,78.90418753704636856,31.30889611599338807,0.62553767059644494,-0.00256269262642299,0.00435863375237616,0.78017758080009503,0.00000000000000000,0.00000000000000000,0.00000000000000000,0.00000000000000000,0.00000000000000000,0.00000000000000000,0.00000000000000000,0.00000000000000000,0.00000000000000000
0.09997391700744629,11.43772159555685164,78.89725320873363046,31.30640237184283237,0.62552808885378097,-0.00260112317029913,0.00438532077008404,0.78018498650956658,0.00000000000000000,-0.00000000000000000,-0.00000000000000000,-0.17000000000000001,1.84000000000000008,9.61999999999999922,0.00000000000000000,0.00000000000000000,11.70193340800000037
0.10998415946960449,11.45749782850122322,78.89014169025168144,31.30591274273415436,0.62548128239312129,-0.00261775389165162,0.00434500553888572,0.78022268210254309,0.00000000000000000,-0.00000000000000000,-0.00000000000000000,-0.17000000000000001,1.84000000000000008,9.61999999999999922,0.00000000000000000,0.00000000000000000,11.70193340800000037
0.11997580528259277,11.43950469706613582,78.91990515167282183,31.31917765387216335,0.62553544949643936,-0.00256139262505647,0.00437519968940790,0.78017927319224900,0.28222222222222221,-0.00333333333333333,-0.00111111111111111,-0.17999999999999999,1.85000000000000009,9.69999999999999929,0.00000000000000000,0.00000000000000000,11.70193340800000037
0.13000130653381348,11.47218901048852580,78.93456558971102766,31.34076633779236332,0.62547110161983044,-0.00254361715423278,0.00424726365745841,0.78023162701961313,0.28222222222222221,-0.00333333333333333,-0.00111111111111111,-0.17999999999999999,1.85000000000000009,9.69999999999999929,0.00000000000000000,0.00000000000000000,11.70193340800000037
0.14000391960144043,11.50855668822734401,78.89796822217479644,31.35510109881560936,0.62552275911116662,-0.00262315265971984,0.00421428184586038,0.78019012857931025,0.28222222222222221,-0.00333333333333333,-0.00111111111111111,-0.17999999999999999,1.85000000000000009,9.69999999999999929,0.00000000000000000,0.00000000000000000,11.70193340800000037
0.15009713172912598,11.50014770750423487,78.92460366269966698,31.22585567454758859,0.62562868579344777,-0.00253296614035345,0.00454948046534073,0.78010360454390348,0.28222222222222221,-0.00333333333333333,-0.00111111111111111,-0.17999999999999999,1.85000000000000009,9.69999999999999929,0.00000000000000000,0.00000000000000000,11.70193340800000037
0.15997242927551270,11.48289604258780194,78.96049650228303562,31.30443080733267891,0.62552356643729834,-0.00253293834770145,0.00424171240441243,0.78018963075060688,0.28222222222222221,-0.00333333333333333,-0.00111111111111111,-0.17999999999999999,1.85000000000000009,9.69999999999999929,0.00000000000000000,0.00000000000000000,11.70193340800000037
0.16998505592346191,11.49607569007899066,78.95979484541554427,31.27755342856670850,0.62559443185115460,-0.00253998727192872,0.00438372924421966,0.78013200050978748,0.28222222222222221,-0.00333333333333333,-0.00111111111111111,-0.17999999999999999,1.85000000000000009,9.69999999999999929,0.00000000000000000,0.00000000000000000,11.70193340800000037
0.17994952201843262,11.53829558758335416,78.95813586295436437,31.29221483916353819,0.62559544900881148,-0.00260605576869036,0.00421219357871807,0.78013191197261578,0.00111111111111111,-0.00111111111111111,0.00111111111111111,-0.17000000000000001,1.83000000000000007,9.66000000000000014,0.00000000000000000,0.00000000000000000,11.68217219200000123
0.18995857238769531,11.52536702600571594,78.96417265651803064,31.29401078581774698,0.62555928077093437,-0.00255326886254574,0.00421667684477179,0.78016106458593149,0.00111111111111111,-0.00111111111111111,0.00111111111111111,-0.17000000000000001,1.83000000000000007,9.66000000000000014,0.00000000000000000,0.00000000000000000,11.68217219200000123
0.19997954368591309,11.49650658140600967,78.98386184100361618,31.25378374564153106,0.62556525480223690,-0.00257097431875982,0.00426683352106045,0.78015594351832507,0.00111111111111111,-0.00111111111111111,0.00111111111111111,-0.17000000000000001,1.83000000000000007,9.66000000000000014,0.00000000000000000,0.00000000000000000,11.68217219200000123
0.20996356010437012,11.52125674121231746,78.94127913223864823,31.28531231698943671,0.62553819478724126,-0.00259996325313578,0.00425713670792028,0.78017759762790651,0.00111111111111111,-0.00111111111111111,0.00111111111111111,-0.17000000000000001,1.83000000000000007,9.66000000000000014,0.00000000000000000,0.00000000000000000,11.68217219200000123
0.21995663642883301,11.44922995269752164,78.95241402396361252,31.30817078573366175,0.62560645063714737,-0.00248781059508725,0.00428073512876084,0.78012310248216021,-0.28333333333333333,0.00222222222222222,0.00111111111111111,-0.16000000000000000,1.85000000000000009,9.71000000000000085,0.00000000000000000,0.00000000000000000,11.69863987200000111
0.22998571395874023,11.47254488391173766,78.90854068298722268,31.27582589915000710,0.62553087555756814,-0.00260257818092857,0.00434989118196120,0.78018294569780178,-0.28333333333333333,0.00222222222222222,0.00111111111111111,-0.16000000000000000,1.85000000000000009,9.71000000000000085,0.00000000000000000,0.00000000000000000,11.69863987200000111
0.23992848396301270,11.49322401308629082,78.92244016839616449,31.32435182854294098,0.62552020589614299,-0.00257025434567677,0.00431909278381694,0.78019177850434307,-0.28333333333333333,0.00222222222222222,0.00111111111111111,-0.16000000000000000,1.85000000000000009,9.71000000000000085,0.00000000000000000,0.00000000000000000,11.69863987200000111
0.25001525878906250,11.48270315822402665,78.90064977430559168,31.26986239315857219,0.62558065653340034,-0.00263151649780911,0.00445160829569410,0.78014235910873486,-0.28333333333333333,0.00222222222222222,0.00111111111111111,-0.16000000000000000,1.85000000000000009,9.71000000000000085,0.00000000000000000,0.00000000000000000,11.69863987200000111
0.25992870330810547,11.48165052404696951,78.89094463321741557,31.26347636927417639,0.62551042776341603,-0.00254926823621490,0.00456586386716855,0.78019828177062456,-0.28333333333333333,0.00222222222222222,0.00111111111111111,-0.16000000000000000,1.85000000000000009,9.71000000000000085,0.00000000000000000,0.00000000000000000,11.69863987200000111
0.26999878883361816,11.42373117594135046,78.88205222985720866,31.30949979434249997,0.62545716343717284,-0.00244955472193897,0.00459511638277774,0.78024113022335495,-0.28333333333333333,0.00222222222222222,0.00111111111111111,-0.16000000000000000,1.85000000000000009,9.71000000000000085,0.00000000000000000,0.00000000000000000,11.69863987200000111
0.28001904487609863,11.51501147899643662,78.90107160334872560,31.25728686909621601,0.62557123556252969,-0.00251565415725228,0.00450230606459439,0.78015000478179319,-0.00111111111111111,0.00333333333333333,-0.00000000000000000,-0.17999999999999999,1.83000000000000007,9.68999999999999950,0.00000000000000000,0.00000000000000000,11.68875926399999976
0.28999471664428711,11.53082161145611373,78.92619759373263832,31.33309547406819107,0.62555071572713372,-0.00259059638448348,0.00430518028559330,0.78016732582591009,-0.00111111111111111,0.00333333333333333,-0.00000000000000000,-0.17999999999999999,1.83000000000000007,9.68999999999999950,0.00000000000000000,0.00000000000000000,11.68875926399999976
0.30007910728454590,11.47981434570534987,78.92902526638518168,31.30780992100123683,0.62553640806427668,-0.00260891894343824,0.00429969444715235,0.78017876692181920,-0.00111111111111111,0.00333333333333333,-0.00000000000000000,-0.17999999999999999,1.83000000000000007,9.68999999999999950,0.00000000000000000,0.00000000000000000,11.68875926399999976
0.31000113487243652,11.49237442802847831,78.93167536985880872,31.27419661804409046,0.62549003880993315,-0.00259559506213373,0.00433377054577836,0.78021579878177216,-0.00111111111111111,0.00333333333333333,-0.00000000000000000,-0.17999999999999999,1.83000000000000007,9.68999999999999950,0.00000000000000000,0.00000000000000000,11.68875926399999976
0.31997799873352051,11.44516695897833358,78.93496093065699881,31.33210244336363459,0.62552074367554411,-0.00254306061174445,0.00432561003200633,0.78019140034492207,-0.00111111111111111,0.00333333333333333,-0.00000000000000000,-0.17999999999999999,1.83000000000000007,9.68999999999999950,0.00000000000000000,0.00000000000000000,11.68875926399999976
0.32999420166015625,11.45138315867612810,78.93927427219959725,31.28071487304974951,0.62552134465823794,-0.00254013532182924,0.00434944254423164,0.78019079553597059,0.00111111111111111,-0.00111111111111111,0.00111111111111111,-0.17000000000000001,1.81000000000000005,9.68999999999999950,0.00000000000000000,0.00000000000000000,11.69534633600000006
0.33998799324035645,11.44930106422767402,78.93058383360067864,31.28164256940084442,0.62550260608293484,-0.00255140918985331,0.00440338696158563,0.78020547952309971,0.00111111111111111,-0.00111111111111111,0.00111111111111111,-0.17000000000000001,1.81000000000000005,9.68999999999999950,0.00000000000000000,0.00000000000000000,11.69534633600000006
0.35012269020080566,11.46701422816967408,78.92872918183587672,31.28184592738442404,0.62557109165409586,-0.00255517826662847,0.00442229020074886,0.78015044940069644,0.00111111111111111,-0.00111111111111111,0.00111111111111111,-0.17000000000000001,1.81000000000000005,9.68999999999999950,0.00000000000000000,0.00000000000000000,11.69534633600000006
0.35993623733520508,11.46253919586420089,78.91264832771616966,31.23327444749137172,0.62551004263755594,-0.00248015387747499,0.00456023530037021,0.78019884622467395,0.00111111111111111,-0.00111111111111111,0.00111111111111111,-0.17000000000000001,1.81000000000000005,9.68999999999999950,0.00000000000000000,0.00000000000000000,11.69534633600000006
0.36998105049133301,11.45505431009979702,78.93698868392105794,31.33860208310812467,0.62554527809378813,-0.00253550651621079,0.00430024795867449,0.78017189396232811,0.00111111111111111,-0.00111111111111111,0.00111111111111111,-0.17000000000000001,1.81000000000000005,9.68999999999999950,0.00000000000000000,0.00000000000000000,11.69534633600000006
0.37996315956115723,11.43267930105590757,78.90775380311390563,31.31282239837652881,0.62555279867584701,-0.00241660954926777,0.00451969020464655,0.78016500079634132,0.00111111111111111,-0.00111111111111111,0.00111111111111111,-0.17000000000000001,1.81000000000000005,9.68999999999999950,0.00000000000000000,0.00000000000000000,11.69534633600000006
0.38996481895446777,11.43532968402308825,78.90001140219936815,31.31299478265336234,0.62547557255922692,-0.00256227244983700,0.00441449397714187,0.78022705357769151,0.00111111111111111,0.00111111111111111,-0.28222222222222221,-0.16000000000000000,1.84000000000000008,9.66000000000000014,0.00000000000000000,0.00000000000000000,11.71181401599999994
0.40002846717834473,11.45656148646224892,78.91423700851835576,31.32391416683553587,0.62553887526326868,-0.00258949481324352,0.00429856902944082,0.78017685966406092,0.00111111111111111,0.00111111111111111,-0.28222222222222221,-0.16000000000000000,1.84000000000000008,9.66000000000000014,0.00000000000000000,0.00000000000000000,11.71181401599999994
0.40995788574218750,11.44628787953333493,78.90757921209323911,31.25338485923937526,0.62554225585354006,-0.00249371319461755,0.00454798621248191,0.78017304705916246,0.00111111111111111,0.00111111111111111,-0.28222222222222221,-0.16000000000000000,1.84000000000000008,9.66000000000000014,0.00000000000000000,0.00000000000000000,11.71181401599999994
0.41996836662292480,11.40677363403732159,78.91592493627270244,31.31114560817547599,0.62553803685107745,-0.00244212446264612,0.00455322015805294,0.78017656249518386,0.28333333333333333,-0.00000000000000000,-0.00000000000000000,-0.17999999999999999,1.83000000000000007,9.71000000000000085,0.00000000000000000,0.00000000000000000,11.67887865600000019
0.42997765541076660,11.45228214175804737,78.88654315920001636,31.30267468123816954,0.62558824621338305,-0.00245746967488652,0.00455474570625874,0.78013624536616200,0.28333333333333333,-0.00000000000000000,-0.00000000000000000,-0.17999999999999999,1.83000000000000007,9.71000000000000085,0.00000000000000000,0.00000000000000000,11.67887865600000019
0.43998122215270996,11.42484913558703319,78.90972677048095818,31.36697859152875267,0.62553394259795514,-0.00248872844945039,0.00431950819217608,0.78018102690179603,0.28333333333333333,-0.00000000000000000,-0.00000000000000000,-0.17999999999999999,1.83000000000000007,9.71000000000000085,0.00000000000000000,0.00000000000000000,11.67887865600000019
0.45007205009460449,11.41157379560750407,78.90214436840454937,31.34046910902780425,0.62551992184890914,-0.00252586045609089,0.00437381921132273,0.78019184634588268,0.28333333333333333,-0.00000000000000000,-0.00000000000000000,-0.17999999999999999,1.83000000000000007,9.71000000000000085,0.00000000000000000,0.00000000000000000,11.67887865600000019
0.45997452735900879,11.40754355006882825,78.83675976204109759,31.31728674251915479,0.62550734388304940,-0.00248911349347761,0.00467386697880678,0.78020030891422576,0.28333333333333333,-0.00000000000000000,-0.00000000000000000,-0.17999999999999999,1.83000000000000007,9.71000000000000085,0.00000000000000000,0.00000000000000000,11.67887865600000019
0.46999931335449219,11.41541060946063091,78.90638025984461024,31.36545578715952232,0.62555752380459650,-0.00251611961291834,0.00448421367007107,0.78016110219704993,0.28333333333333333,-0.00000000000000000,-0.00000000000000000,-0.17999999999999999,1.83000000000000007,9.71000000000000085,0.00000000000000000,0.00000000000000000,11.67887865600000019
0.48009705543518066,11.45684225853818283,78.87018896717991367,31.37212687974921721,0.62552539393946438,-0.00256381968974013,0.00435532415697490,0.78018743870749696,0.00222222222222222,-0.00222222222222222,0.00111111111111111,-0.17000000000000001,1.83000000000000007,9.69999999999999929,0.00000000000000000,0.00000000000000000,11.70522694399999963
0.49000668525695801,11.43953864213933969,78.87325562602349294,31.38670774506833183,0.62548249085858432,-0.00248797332295186,0.00446471849614587,0.78022146209062659,0.00222222222222222,-0.00222222222222222,0.00111111111111111,-0.17000000000000001,1.83000000000000007,9.69999999999999929,0.00000000000000000,0.00000000000000000,11.70522694399999963
0.49993968009948730,11.41699455080575376,78.87129529377266124,31.30773456600936200,0.62558200809800391,-0.00257401376037225,0.00449590578044444,0.78014121313288121,0.00222222222222222,-0.00222222222222222,0.00111111111111111,-0.17000000000000001,1.83000000000000007,9.69999999999999929,0.00000000000000000,0.00000000000000000,11.70522694399999963
0.50999116897583008,11.42979428892722638,78.88352852258752534,31.33269756565553976,0.62548584030073406,-0.00253501395675181,0.00434211880026425,0.78021931743058526,0.00222222222222222,-0.00222222222222222,0.00111111111111111,-0.17000000000000001,1.83000000000000007,9.69999999999999929,0.00000000000000000,0.00000000000000000,11.70522694399999963
0.51997041702270508,11.37821521568161209,78.87923916587024564,31.37100007729765139,0.62552323154381129,-0.00248352526341666,0.00447716252544610,0.78018874249566950,0.00222222222222222,-0.00222222222222222,0.00111111111111111,-0.17000000000000001,1.83000000000000007,9.69999999999999929,0.00000000000000000,0.00000000000000000,11.70522694399999963
0.53010177612304688,11.40633314293491729,78.87493898458130559,31.34233450459049664,0.62547961896257442,-0.00243013725374812,0.00450767084573410,0.78022369971624617,-0.00111111111111111,-0.00000000000000000,-0.00111111111111111,-0.17000000000000001,1.82000000000000006,9.66000000000000014,0.00000000000000000,0.00000000000000000,11.71840108800000024
0.53998374938964844,11.44431562598888696,78.91840183787817864,31.33660366824693355,0.62554861846747001,-0.00252772184853301,0.00436707328158746,0.78016886968569155,-0.00111111111111111,-0.00000000000000000,-0.00111111111111111,-0.17000000000000001,1.82000000000000006,9.66000000000000014,0.00000000000000000,0.00000000000000000,11.71840108800000024
0.55006623268127441,11.39801541817931785,78.89206979989270963,31.35285151477670240,0.62555216690548954,-0.00251034890788713,0.00437943219753753,0.78016601130902541,-0.00111111111111111,-0.00000000000000000,-0.00111111111111111,-0.17000000000000001,1.82000000000000006,9.66000000000000014,0.00000000000000000,0.00000000000000000,11.71840108800000024
0.55998897552490234,11.41347457789493092,78.89939292752320910,31.28751880089246029,0.62551228605497222,-0.00249558764926066,0.00453830000706356,0.78019712628899973,-0.00111111111111111,-0.00000000000000000,-0.00111111111111111,-0.17000000000000001,1.82000000000000006,9.66000000000000014,0.00000000000000000,0.00000000000000000,11.71840108800000024
0.57001042366027832,11.41791011641131171,78.89614089180039969,31.31625951399589169,0.62561031050323135,-0.00238616325444180,0.00465045877158494,0.78011820825448475,-0.00111111111111111,-0.00000000000000000,-0.00111111111111111,-0.17000000000000001,1.82000000000000006,9.66000000000000014,0.00000000000000000,0.00000000000000000,11.71840108800000024
0.58010053634643555,11.46407002043465262,78.87440191588841287,31.34930476967657853,0.62551283142185954,-0.00251518688876705,0.00439815855836916,0.78019742870815600,-0.00222222222222222,-0.00000000000000000,0.00222222222222222,-0.17000000000000001,1.82000000000000006,9.71000000000000085,0.00000000000000000,0.00000000000000000,11.69534633600000006
0.59000468254089355,11.46415754117719565,78.87501001104924114,31.37367286851990400,0.62547126162301003,-0.00251745111246347,0.00441758165416065,0.78023063788596847,-0.00222222222222222,-0.00000000000000000,0.00222222222222222,-0.17000000000000001,1.82000000000000006,9.71000000000000085,0.00000000000000000,0.00000000000000000,11.69534633600000006
0.60004544258117676,11.37778188813446434,78.82773967793814052,31.28257898789256330,0.62550997488908322,-0.00251772749957335,0.00475275443448737,0.78019763117288510,-0.00222222222222222,-0.00000000000000000,0.00222222222222222,-0.17000000000000001,1.82000000000000006,9.71000000000000085,0.00000000000000000,0.00000000000000000,11.69534633600000006
0.61002898216247559,11.43261675075944517,78.86449356507604591,31.32936444491419437,0.62551841569382460,-0.00252215423885852,0.00448784345617126,0.78019241833473096,-0.00222222222222222,-0.00000000000000000,0.00222222222222222,-0.17000000000000001,1.82000000000000006,9.71000000000000085,0.00000000000000000,0.00000000000000000,11.69534633600000006
0.61999607086181641,11.39733923896804946,78.85643879967823011,31.36046794498340873,0.62555339316921033,-0.00253624045309714,0.00450107189073215,0.78016425202048700,-0.00222222222222222,-0.00000000000000000,0.00222222222222222,-0.17000000000000001,1.82000000000000006,9.71000000000000085,0.00000000000000000,0.00000000000000000,11.69534633600000006
0.63014221191406250,11.38454443893520285,78.85245980953330047,31.36882331618176067,0.62552603696453923,-0.00247252488315324,0.00452118589218758,0.78018627428215370,-0.00222222222222222,0.00111111111111111,0.28444444444444444,-0.17000000000000001,1.83000000000000007,9.66999999999999993,0.00000000000000000,0.00000000000000000,11.70522694399999963
0.64026498794555664,11.40038664549873282,78.86002957058184393,31.37571498685032623,0.62554792583279251,-0.00248401336883940,0.00451339206655434,0.78016873268282683,-0.00222222222222222,0.00111111111111111,0.28444444444444444,-0.17000000000000001,1.83000000000000007,9.66999999999999993,0.00000000000000000,0.00000000000000000,11.70522694399999963
0.65005135536193848,11.36212105187322585,78.82521906498297426,31.33253562522976310,0.62552966431125023,-0.00247402781398091,0.00472323037551780,0.78018216420772524,-0.00222222222222222,0.00111111111111111,0.28444444444444444,-0.17000000000000001,1.83000000000000007,9.66999999999999993,0.00000000000000000,0.00000000000000000,11.70522694399999963
0.66006445884704590,11.39415548776757703,78.84622480315350401,31.39237025782587409,0.62543684390369714,-0.00258689338992506,0.00435402022487705,0.78025835771124752,-0.00222222222222222,0.00111111111111111,0.28444444444444444,-0.17000000000000001,1.83000000000000007,9.66999999999999993,0.00000000000000000,0.00000000000000000,11.70522694399999963
0.67005300521850586,11.33357098180643696,78.80385462826552612,31.34936589308681576,0.62551344739544512,-0.00239757212003611,0.00481995658517271,0.78019481336004293,-0.00222222222222222,0.00111111111111111,0.28444444444444444,-0.17000000000000001,1.83000000000000007,9.66999999999999993,0.00000000000000000,0.00000000000000000,11.70522694399999963
0.68006014823913574,11.40512273799738807,78.84431086339748163,31.37573119179122116,0.62551258025230705,-0.00248244367769344,0.00450597834563650,0.78019711969388694,-0.00222222222222222,0.00111111111111111,0.28444444444444444,-0.17000000000000001,1.83000000000000007,9.66999999999999993,0.00000000000000000,0.00000000000000000,11.70522694399999963
0.69008922576904297,11.43365546961882195,78.87193872780353843,31.36442496310370487,0.62555851843025401,-0.00251673598532172,0.00441955485322745,0.78016067165310587,0.00000000000000000,-0.00000000000000000,0.00222222222222222,-0.17999999999999999,1.83000000000000007,9.66000000000000014,0.00000000000000000,0.00000000000000000,11.69534633600000006
0.70005893707275391,11.42360815680196673,78.86463259898476963,31.34118419234998498,0.62553510348440022,-0.00256370939151965,0.00447586622061053,0.78017897198302610,0.00000000000000000,-0.00000000000000000,0.00222222222222222,-0.17999999999999999,1.83000000000000007,9.66000000000000014,0.00000000000000000,0.00000000000000000,11.69534633600000006
0.71008920669555664,11.48003458599039561,78.87640015486663003,31.34121188995948160,0.62550964535533493,-0.00263646681728431,0.00439018094505303,0.78019962760913586,0.00000000000000000,-0.00000000000000000,0.00222222222222222,-0.17999999999999999,1.83000000000000007,9.66000000000000014,0.00000000000000000,0.00000000000000000,11.69534633600000006
0.72001194953918457,11.40760788922048619,78.90144615027935515,31.34382047853921804,0.62560660881266517,-0.00245567177382282,0.00450090262468887,0.78012183828016191,-0.00333333333333333,0.28444444444444444,-0.00222222222222222,-0.16000000000000000,1.82000000000000006,9.69999999999999929,0.00000000000000000,0.00000000000000000,11.68875926399999976
0.73001742362976074,11.44460818666305535,78.91047571240075342,31.33096056895220372,0.62553420845307051,-0.00250304899075479,0.00440071917403657,0.78018031407584953,-0.00333333333333333,0.28444444444444444,-0.00222222222222222,-0.16000000000000000,1.82000000000000006,9.69999999999999929,0.00000000000000000,0.00000000000000000,11.68875926399999976
0.73996901512145996,11.44929947242472679,78.90087141101601276,31.32529833587833323,0.62553046203794560,-0.00249431440532585,0.00442051590258943,0.78018323392482425,-0.00333333333333333,0.28444444444444444,-0.00222222222222222,-0.16000000000000000,1.82000000000000006,9.69999999999999929,0.00000000000000000,0.00000000000000000,11.68875926399999976
0.75000047683715820,11.45679491358304425,78.92085994076647637,31.33167764808948519,0.62561453932109923,-0.00250374531766233,0.00435078031301516,0.78011617734802885,-0.00333333333333333,0.28444444444444444,-0.00222222222222222,-0.16000000000000000,1.82000000000000006,9.69999999999999929,0.00000000000000000,0.00000000000000000,11.68875926399999976
0.76000094413757324,11.46780088293541233,78.87744242258020222,31.32966725317981016,0.62547172057403155,-0.00258384991048883,0.00440507219316190,0.78023012363069810,-0.00333333333333333,0.28444444444444444,-0.00222222222222222,-0.16000000000000000,1.82000000000000006,9.69999999999999929,0.00000000000000000,0.00000000000000000,11.68875926399999976
0.77001857757568359,11.42187561305381927,78.93587441463844812,31.35279114835461201,0.62553602335685499,-0.00242339703313137,0.00439465307269500,0.78017914459057558,-0.00333333333333333,0.28444444444444444,-0.00222222222222222,-0.16000000000000000,1.82000000000000006,9.69999999999999929,0.00000000000000000,0.00000000000000000,11.68875926399999976
0.77997708320617676,11.46924139210763904,78.90440205282119734,31.31763796028277014,0.62557734004335475,-0.00258037089687927,0.00440150111062968,0.78014547367672982,0.00000000000000000,0.00111111111111111,-0.00111111111111111,-0.14999999999999999,1.83000000000000007,9.69999999999999929,0.00000000000000000,0.00000000000000000,11.70522694399999963
0.78996086120605469,11.49047035121602711,78.88784064803429885,31.34366722042124209,0.62557910904781400,-0.00258177065314381,0.00444144766747016,0.78014382412850902,0.00000000000000000,0.00111111111111111,-0.00111111111111111,-0.14999999999999999,1.83000000000000007,9.69999999999999929,0.00000000000000000,0.00000000000000000,11.70522694399999963
0.79994869232177734,11.45621822877962437,78.88820207693568420,31.36566540574139239,0.62555533799195895,-0.00259377056143144,0.00431899156077527,0.78016353271345518,0.00000000000000000,0.00111111111111111,-0.00111111111111111,-0.14999999999999999,1.83000000000000007,9.69999999999999929,0.00000000000000000,0.00000000000000000,11.70522694399999963
0.81001853942871094,11.45564559944501148,78.89275608615498925,31.33932814877306683,0.62544708808430971,-0.00261547763956871,0.00433997646974661,0.78025012905338065,0.00000000000000000,0.00111111111111111,-0.00111111111111111,-0.14999999999999999,1.83000000000000007,9.69999999999999929,0.00000000000000000,0.00000000000000000,11.70522694399999963
0.82000207901000977,11.40401981942025067,78.87161330510194546,31.35951067270879022,0.62552012679795421,-0.00246889166572907,0.00460551754918517,0.78019053105809877,0.00000000000000000,0.00111111111111111,-0.00111111111111111,-0.14999999999999999,1.83000000000000007,9.69999999999999929,0.00000000000000000,0.00000000000000000,11.70522694399999963
0.83002662658691406,11.44162726929857321,78.88372532963234107,31.34839186254507126,0.62547793132244578,-0.00254471617399413,0.00437171544296111,0.78022546097411727,0.00000000000000000,0.00111111111111111,-0.00111111111111111,-0.14999999999999999,1.83000000000000007,9.69999999999999929,0.00000000000000000,0.00000000000000000,11.70522694399999963
0.83999061584472656,11.44495256614363221,78.90233146296003497,31.34779372100221551,0.62551938288747655,-0.00252089913608252,0.00433457556077528,0.78019251352106989,0.00000000000000000,0.00111111111111111,-0.00111111111111111,-0.14999999999999999,1.83000000000000007,9.69999999999999929,0.00000000000000000,0.00000000000000000,11.70522694399999963
0.85000252723693848,11.42733475942182508,78.86423766932233548,31.33455049204604492,0.62554323605680373,-0.00255582349030622,0.00443327592535480,0.78017272039878327,0.00000000000000000,0.00111111111111111,-0.00111111111111111,-0.14999999999999999,1.83000000000000007,9.69999999999999929,0.00000000000000000,0.00000000000000000,11.70522694399999963
0.85997843742370605,11.44118445169739573,78.89898045682646455,31.27625158707505548,0.62553096650059348,-0.00248903080887097,0.00451164815189835,0.78018232465585813,0.00000000000000000,0.00111111111111111,-0.00111111111111111,-0.14999999999999999,1.83000000000000007,9.69999999999999929,0.00000000000000000,0.00000000000000000,11.70522694399999963
0.87004709243774414,11.40420081380421458,78.90500784817173496,31.32454915429530828,0.62559373042226296,-0.00248784463010107,0.00444600513111075,0.78013237858957429,-0.00111111111111111,-0.00000000000000000,0.00222222222222222,-0.17000000000000001,1.80000000000000004,9.68999999999999950,0.00000000000000000,0.00000000000000000,11.69205280000000080
0.87998151779174805,11.41238251220329936,78.86459833198945546,31.35357314056381028,0.62549250388392708,-0.00249790534243339,0.00449223617118598,0.78021324512475243,-0.00111111111111111,-0.00111111111111111,-0.00333333333333333,-0.17999999999999999,1.84000000000000008,9.68999999999999950,0.00000000000000000,0.00000000000000000,11.68875926399999976
0.88999652862548828,11.44169179118771673,78.88388783206903554,31.32980491879099816,0.62550248048796064,-0.00253538593111983,0.00442754240525310,0.78020549574444698,-0.00111111111111111,-0.00111111111111111,-0.00333333333333333,-0.17999999999999999,1.84000000000000008,9.68999999999999950,0.00000000000000000,0.00000000000000000,11.68875926399999976
0.89997458457946777,11.45643520432607865,78.84357340190167918,31.26218092958424677,0.62559063915883983,-0.00255123574575104,0.00463481852960479,0.78013355385485228,-0.00111111111111111,-0.00111111111111111,-0.00333333333333333,-0.17999999999999999,1.84000000000000008,9.68999999999999950,0.00000000000000000,0.00000000000000000,11.68875926399999976
0.91002011299133301,11.45534689048373345,78.86117270616257713,31.34918862015880237,0.62549130224618754,-0.00260576803929909,0.00436946542680138,0.78021455290142971,-0.00111111111111111,-0.00111111111111111,-0.00333333333333333,-0.17999999999999999,1.84000000000000008,9.68999999999999950,0.00000000000000000,0.00000000000000000,11.68875926399999976
0.92023539543151855,11.39408247317034295,78.87236612603886954,31.35210758112145513,0.62555080618605019,-0.00250765277710489,0.00446856149997522,0.78016660561424511,-0.00111111111111111,-0.00111111111111111,-0.00333333333333333,-0.17999999999999999,1.84000000000000008,9.68999999999999950,0.00000000000000000,0.00000000000000000,11.68875926399999976
0.93006229400634766,11.40379021739304299,78.88212431802331537,31.35060759985414336,0.62552619416395605,-0.00249690697950923,0.00443875950784315,0.78018654390108755,0.00111111111111111,0.00111111111111111,-0.00000000000000000,-0.19000000000000000,1.83000000000000007,9.69999999999999929,0.00000000000000000,0.00000000000000000,11.69863987200000111
0.94004297256469727,11.41163178779453347,78.85264490589894137,31.33935059014388003,0.62548327911363077,-0.00256228743789443,0.00442360388580984,0.78022082384476721,0.00111111111111111,0.00111111111111111,-0.00000000000000000,-0.19000000000000000,1.83000000000000007,9.69999999999999929,0.00000000000000000,0.00000000000000000,11.69863987200000111
0.95005202293395996,11.43529898346390006,78.87529529691261132,31.30991363708849562,0.62554451281686774,-0.00254814352978484,0.00450261954591749,0.78017132468867634,0.00111111111111111,0.00111111111111111,-0.00000000000000000,-0.19000000000000000,1.83000000000000007,9.69999999999999929,0.00000000000000000,0.00000000000000000,11.69863987200000111
0.96006894111633301,11.46548677458951637,78.87031874738239878,31.33373952235873716,0.62549551479901178,-0.00260501347484000,0.00438694775364754,0.78021108013185914,0.00111111111111111,0.00111111111111111,-0.00000000000000000,-0.19000000000000000,1.83000000000000007,9.69999999999999929,0.00000000000000000,0.00000000000000000,11.69863987200000111
0.97002029418945312,11.44191493459805109,78.89438989745350739,31.28125844415721701,0.62557974342534328,-0.00246044241307633,0.00457586840025761,0.78014293066552698,0.00111111111111111,0.00111111111111111,-0.00000000000000000,-0.19000000000000000,1.83000000000000007,9.69999999999999929,0.00000000000000000,0.00000000000000000,11.69863987200000111
0.98001241683959961,11.48555096656107821,78.86704651861288085,31.30720916526614062,0.62546380196679996,-0.00267433294146624,0.00430941265058116,0.78023670083838104,-0.28444444444444444,0.00111111111111111,-0.00111111111111111,-0.16000000000000000,1.82000000000000006,9.69999999999999929,0.00000000000000000,0.00000000000000000,11.69205280000000080
0.99009394645690918,11.47565176367428386,78.88928190406046781,31.35352319511892105,0.62554526361174423,-0.00254198102312652,0.00437718983954025,0.78017145661354470,-0.28444444444444444,0.00111111111111111,-0.00111111111111111,-0.16000000000000000,1.82000000000000006,9.69999999999999929,0.00000000000000000,0.00000000000000000,11.69205280000000080
1.00004911422729492,11.45225945553838187,78.93517595618523330,31.33346233682824433,0.62551116300650256,-0.00255516349722024,0.00432032633341561,0.78019907131073163,-0.28444444444444444,0.00111111111111111,-0.00111111111111111,-0.16000000000000000,1.82000000000000006,9.69999999999999929,0.00000000000000000,0.00000000000000000,11.69205280000000080
1.01004505157470703,11.46646725485069851,78.90160184166661850,31.33345565947504952,0.62552244955284331,-0.00258990198776247,0.00437438072394129,0.78018960663827452,-0.28444444444444444,0.00111111111111111,-0.00111111111111111,-0.16000000000000000,1.82000000000000006,9.69999999999999929,0.00000000000000000,0.00000000000000000,11.69205280000000080
1.02000451087951660,11.46585687422627586,78.91666937745981159,31.28393701292496232,0.62562743212918526,-0.00257309768690061,0.00448012060115765,0.78010488003545719,-0.28444444444444444,0.00111111111111111,-0.00111111111111111,-0.16000000000000000,1.82000000000000006,9.69999999999999929,0.00000000000000000,0.00000000000000000,11.69205280000000080
1.03002429008483887,11.47637308941701484,78.87670603913873890,31.29387878998247174,0.62556396208429654,-0.00265581056017480,0.00434399309369413,0.78015627007393040,0.00000000000000000,-0.00000000000000000,-0.00111111111111111,-0.16000000000000000,1.85000000000000009,9.64000000000000057,0.00000000000000000,0.00000000000000000,11.71840108800000024
1.03997254371643066,11.50566406732833435,78.87027810309534459,31.29226760190470102,0.62554644465300735,-0.00265207094061556,0.00438428725038148,0.78017010332812298,0.00000000000000000,-0.00000000000000000,-0.00111111111111111,-0.16000000000000000,1.85000000000000009,9.64000000000000057,0.00000000000000000,0.00000000000000000,11.71840108800000024
1.04998254776000977,11.46077368349648928,78.90011875445269141,31.26903803103586199,0.62559852139023342,-0.00260837309621955,0.00443475696816075,0.78012820699855345,0.00000000000000000,-0.00000000000000000,-0.00111111111111111,-0.16000000000000000,1.85000000000000009,9.64000000000000057,0.00000000000000000,0.00000000000000000,11.71840108800000024
1.05998039245605469,11.52434625525801870,78.89707812373104900,31.26570772654327257,0.62549675280523320,-0.00267211852383142,0.00441062816134587,0.78020972717079484,0.00000000000000000,-0.00000000000000000,-0.00111111111111111,-0.16000000000000000,1.85000000000000009,9.64000000000000057,0.00000000000000000,0.00000000000000000,11.71840108800000024
1.06996631622314453,11.48327947215271649,78.90827629957310307,31.32703885569553037,0.62553631060536441,-0.00260010606915035,0.00441272479946073,0.78017824336654173,0.00222222222222222,-0.00333333333333333,-0.00111111111111111,-0.17999999999999999,1.83000000000000007,9.68999999999999950,0.00000000000000000,0.00000000000000000,11.69863987200000111
1.07997035980224609,11.50218982680387647,78.87965184283179099,31.30577104363520036,0.62554418751176966,-0.00258288646875192,0.00440257760063260,0.78017204223055814,0.00222222222222222,-0.00333333333333333,-0.00111111111111111,-0.17999999999999999,1.83000000000000007,9.68999999999999950,0.00000000000000000,0.00000000000000000,11.69863987200000111
1.08999228477478027,11.49616741636425843,78.89563485415705202,31.33032284776448861,0.62551748851806355,-0.00260050596853563,0.00430159186843016,0.78019395360010269,0.00222222222222222,-0.00333333333333333,-0.00111111111111111,-0.17999999999999999,1.83000000000000007,9.68999999999999950,0.00000000000000000,0.00000000000000000,11.69863987200000111
1.09997415542602539,11.47720169188328043,78.88335921489051827,31.27236529791042585,0.62555458284862131,-0.00263289452066632,0.00446299662876119,0.78016319664838196,0.00222222222222222,-0.00333333333333333,-0.00111111111111111,-0.17999999999999999,1.83000000000000007,9.68999999999999950,0.00000000000000000,0.00000000000000000,11.69863987200000111
1.11000537872314453,11.51048500945582553,78.90549344654284880,31.27797586657100126,0.62548326141101973,-0.00270762531274552,0.00430817120113082,0.78022099312996029,0.00222222222222222,-0.00333333333333333,-0.00111111111111111,-0.17999999999999999,1.83000000000000007,9.68999999999999950,0.00000000000000000,0.00000000000000000,11.69863987200000111
1.12000393867492676,11.46120022207908562,78.90741692400116847,31.29331980570944438,0.62548519395112756,-0.00264218173659003,0.00440904682196739,0.78021910469413158,0.00222222222222222,-0.00333333333333333,-0.00111111111111111,-0.17999999999999999,1.83000000000000007,9.68999999999999950,0.00000000000000000,0.00000000000000000,11.69863987200000111
1.13004565238952637,11.49836767804427495,78.94280834829839932,31.30218714183647322,0.62558109209959534,-0.00258348626671298,0.00423769501504353,0.78014336166319298,0.00222222222222222,-0.00333333333333333,-0.00111111111111111,-0.17999999999999999,1.83000000000000007,9.68999999999999950,0.00000000000000000,0.00000000000000000,11.69863987200000111
1.13996624946594238,11.51011960577800153,78.93861649664938795,31.27398739552649332,0.62556480592981978,-0.00271982264166404,0.00419757011736573,0.78015617446245622,0.00222222222222222,0.00222222222222222,-0.00333333333333333,-0.17000000000000001,1.84000000000000008,9.71000000000000085,0.00000000000000000,0.00000000000000000,11.69863987200000111
1.14999389648437500,11.47137165146389748,78.90414379464874628,31.26359643166893321,0.62557910576255127,-0.00265700797327731,0.00438084286468197,0.78014391682416628,0.00222222222222222,0.00222222222222222,-0.00333333333333333,-0.17000000000000001,1.84000000000000008,9.71000000000000085,0.00000000000000000,0.00000000000000000,11.69863987200000111
1.16000103950500488,11.49881236397882311,78.89514157803110095,31.24508644477620578,0.62555134490712172,-0.00255578997300198,0.00454065928725278,0.78016560116153688,0.00222222222222222,0.00222222222222222,-0.00333333333333333,-0.17000000000000001,1.84000000000000008,9.71000000000000085,0.00000000000000000,0.00000000000000000,11.69863987200000111
1.17002105712890625,11.47698110596312482,78.91618277064976894,31.32626142183760365,0.62559721383477118,-0.00254445391399224,0.00441753297687114,0.78012956436661818,0.00222222222222222,0.00222222222222222,-0.00333333333333333,-0.17000000000000001,1.84000000000000008,9.71000000000000085,0.00000000000000000,0.00000000000000000,11.69863987200000111
1.17996668815612793,11.47565011878228347,78.89025363973567551,31.32328085858723909,0.62554901654125405,-0.00262274674670281,0.00433904252631719,0.78016839324195086,0.00222222222222222,0.00222222222222222,-0.00333333333333333,-0.17000000000000001,1.84000000000000008,9.71000000000000085,0.00000000000000000,0.00000000000000000,11.69863987200000111
1.18996143341064453,11.46025024886302823,78.85573552302957978,31.29063441376557364,0.62548542137691698,-0.00259786835979700,0.00455681976666953,0.78021822211387748,-0.28444444444444444,-0.00000000000000000,-0.00222222222222222,-0.17000000000000001,1.85000000000000009,9.64000000000000057,0.00000000000000000,0.00000000000000000,11.69863987200000111
1.19995951652526855,11.48542045942613221,78.87010409768009822,31.31936163489060121,0.62556715359625481,-0.00266525189851019,0.00435312367171735,0.78015362787600706,-0.28444444444444444,-0.00000000000000000,-0.00222222222222222,-0.17000000000000001,1.85000000000000009,9.64000000000000057,0.00000000000000000,0.00000000000000000,11.69863987200000111
1.20996475219726562,11.48211658750036257,78.85900636359680504,31.31886714227361779,0.62549913017512837,-0.00268066615470965,0.00431979838825788,0.78020830008466957,-0.28444444444444444,-0.00000000000000000,-0.00222222222222222,-0.17000000000000001,1.85000000000000009,9.64000000000000057,0.00000000000000000,0.00000000000000000,11.69863987200000111
1.21997213363647461,11.45736547103832059,78.87097105790465434,31.35762317266852506,0.62556610767980436,-0.00262806208169913,0.00440976177107250,0.78015427462339593,0.00111111111111111,0.28222222222222221,-0.00111111111111111,-0.17999999999999999,1.82000000000000006,9.69999999999999929,0.00000000000000000,0.00000000000000000,11.71840108800000024
1.22999811172485352,11.47064877878256972,78.84459610763100557,31.33056766606852861,0.62554069800828760,-0.00260001013058609,0.00448174137917257,0.78017433249039669,0.00111111111111111,0.28222222222222221,-0.00111111111111111,-0.17999999999999999,1.82000000000000006,9.69999999999999929,0.00000000000000000,0.00000000000000000,11.71840108800000024
1.23996925354003906,11.44273757231812283,78.85190431672720024,31.32324215495681585,0.62552744725668130,-0.00263095357470741,0.00446188989444989,0.78018496675493376,0.00111111111111111,0.28222222222222221,-0.00111111111111111,-0.17999999999999999,1.82000000000000006,9.69999999999999929,0.00000000000000000,0.00000000000000000,11.71840108800000024
1.24999761581420898,11.45187258429192489,78.88935497820651221,31.32051562858082150,0.62556676549449797,-0.00267071050025801,0.00430090396409031,0.78015421003752028,0.00111111111111111,0.28222222222222221,-0.00111111111111111,-0.17999999999999999,1.82000000000000006,9.69999999999999929,0.00000000000000000,0.00000000000000000,11.71840108800000024
1.26000046730041504,11.48435225861656228,78.87528292822592846,31.33052024567209060,0.62549095918913111,-0.00274171956830018,0.00426223070906961,0.78021495521160877,0.00111111111111111,0.28222222222222221,-0.00111111111111111,-0.17999999999999999,1.82000000000000006,9.69999999999999929,0.00000000000000000,0.00000000000000000,11.71840108800000024
1.27002191543579102,11.47333662627647222,78.88788079395978059,31.30006206013152337,0.62561280887552173,-0.00258366644012449,0.00448512446876945,0.78011654366325689,0.00111111111111111,0.28222222222222221,-0.00111111111111111,-0.17999999999999999,1.82000000000000006,9.69999999999999929,0.00000000000000000,0.00000000000000000,11.71840108800000024
1.28006839752197266,11.47283358387865349,78.86105078543722868,31.34773934392778116,0.62551359832454567,-0.00263116960429735,0.00437513515955597,0.78019656077806976,0.00000000000000000,-0.00000000000000000,0.00111111111111111,-0.17000000000000001,1.84000000000000008,9.68999999999999950,0.00000000000000000,0.00000000000000000,11.69534633600000006
1.29003524780273438,11.45625642414425727,78.86034971953320394,31.33775476448971986,0.62553623471316577,-0.00252497072019330,0.00442480897486646,0.78017848255977496,0.00000000000000000,-0.00000000000000000,0.00111111111111111,-0.17000000000000001,1.84000000000000008,9.68999999999999950,0.00000000000000000,0.00000000000000000,11.69534633600000006
1.30000162124633789,11.45165045638701429,78.86918577359573135,31.28081418421578519,0.62559184677344637,-0.00254576853016421,0.00451474369238969,0.78013330745621412,0.00000000000000000,-0.00000000000000000,0.00111111111111111,-0.17000000000000001,1.84000000000000008,9.68999999999999950,0.00000000000000000,0.00000000000000000,11.69534633600000006
1.31006646156311035,11.43945663827553005,78.87621498997110336,31.26754434937831206,0.62556929425245833,-0.00249573594972806,0.00465268594963682,0.78015074306444410,0.00000000000000000,-0.00000000000000000,0.00111111111111111,-0.17000000000000001,1.84000000000000008,9.68999999999999950,0.00000000000000000,0.00000000000000000,11.69534633600000006
1.32018136978149414,11.47940097216337563,78.89958134339894968,31.32844544051581792,0.62556834475525802,-0.00264616431442505,0.00435169664246327,0.78015274567928017,0.00000000000000000,-0.00000000000000000,0.00111111111111111,-0.17000000000000001,1.84000000000000008,9.68999999999999950,0.00000000000000000,0.00000000000000000,11.69534633600000006
1.33010482788085938,11.47727180796260349,78.88366511599528508,31.33679238886996288,0.62551522770649126,-0.00254095049296694,0.00446344244934505,0.78019505327795435,0.00000000000000000,0.00111111111111111,-0.00000000000000000,-0.17999999999999999,1.84000000000000008,9.67999999999999972,0.00000000000000000,0.00000000000000000,11.70852048000000067
1.34016871452331543,11.46489073267701464,78.86888872625479507,31.30290365911987394,0.62552911596812155,-0.00260347831795730,0.00446072569768481,0.78018372765845234,0.00000000000000000,0.00111111111111111,-0.00000000000000000,-0.17999999999999999,1.84000000000000008,9.67999999999999972,0.00000000000000000,0.00000000000000000,11.70852048000000067
1.35008811950683594,11.49043043722933533,78.92596329046305925,31.30428833132001287,0.62557901075211020,-0.00263633228759039,0.00429594668180132,0.78014453526291383,0.00000000000000000,0.00111111111111111,-0.00000000000000000,-0.17999999999999999,1.84000000000000008,9.67999999999999972,0.00000000000000000,0.00000000000000000,11.70852048000000067
1.36001062393188477,11.50665493937860617,78.91924363977976498,31.30988914636151677,0.62552920832566505,-0.00264657394160717,0.00421878569476587,0.78018485439355956,0.00000000000000000,0.00111111111111111,-0.00000000000000000,-0.17999999999999999,1.84000000000000008,9.67999999999999972,0.00000000000000000,0.00000000000000000,11.70852048000000067
1.37007308006286621,11.47662115743593780,78.90460053175848998,31.30663434275922086,0.62560679483379755,-0.00269517607374745,0.00426825455137498,0.78012220599518856,0.00000000000000000,0.00111111111111111,-0.00000000000000000,-0.17999999999999999,1.84000000000000008,9.67999999999999972,0.00000000000000000,0.00000000000000000,11.70852048000000067
1.38006067276000977,11.45761183259740257,78.89388077313508063,31.29467984131250091,0.62554504563523150,-0.00253307692326471,0.00439927454623960,0.78017153612906409,-0.28444444444444444,0.00333333333333333,0.00222222222222222,-0.17000000000000001,1.85000000000000009,9.71000000000000085,0.00000000000000000,0.00000000000000000,11.70193340800000037
1.39000773429870605,11.47357310852099488,78.92016860189525573,31.29248178324831997,0.62555945655757006,-0.00265348782709214,0.00424816894898593,0.78016041835915395,-0.28444444444444444,0.00333333333333333,0.00222222222222222,-0.17000000000000001,1.85000000000000009,9.71000000000000085,0.00000000000000000,0.00000000000000000,11.70193340800000037
1.39998483657836914,11.45534226098036790,78.90958724704789518,31.32303696672883575,0.62552117583969469,-0.00263073390745970,0.00424534361507922,0.78019120404733089,-0.28444444444444444,0.00333333333333333,0.00222222222222222,-0.17000000000000001,1.85000000000000009,9.71000000000000085,0.00000000000000000,0.00000000000000000,11.70193340800000037
1.40999269485473633,11.53037397434298406,78.92274307450770721,31.31468260322246167,0.62554452605013544,-0.00272538265403530,0.00419642076031213,0.78017242214199245,-0.28444444444444444,0.00333333333333333,0.00222222222222222,-0.17000000000000001,1.85000000000000009,9.71000000000000085,0.00000000000000000,0.00000000000000000,11.70193340800000037
1.41999626159667969,11.47710647247394888,78.91443102135274046,31.31417044735091793,0.62555237318028267,-0.00261504420492632,0.00430645975982791,0.78016590822507725,-0.28444444444444444,0.00333333333333333,0.00222222222222222,-0.17000000000000001,1.85000000000000009,9.71000000000000085,0.00000000000000000,0.00000000000000000,11.70193340800000037
1.43004417419433594,11.49135877408223472,78.89549605119866271,31.31842755426903935,0.62555188490469005,-0.00263261706780532,0.00430040252292862,0.78016627404528571,-0.28444444444444444,0.00333333333333333,0.00222222222222222,-0.17000000000000001,1.85000000000000009,9.71000000000000085,0.00000000000000000,0.00000000000000000,11.70193340800000037
1.43993353843688965,11.48785975138227400,78.87473222576069531,31.32319951916400669,0.62550057078926191,-0.00260097711839263,0.00441995192438887,0.78020685390819466,-0.00222222222222222,0.00222222222222222,0.00111111111111111,-0.19000000000000000,1.84000000000000008,9.71000000000000085,0.00000000000000000,0.00000000000000000,11.71840108800000024
1.44997763633728027,11.44589288380978509,78.85109538018014064,31.32381095761312295,0.62552334900064244,-0.00268965772399711,0.00431337063398030,0.78018888766126504,-0.00222222222222222,0.00222222222222222,0.00111111111111111,-0.19000000000000000,1.84000000000000008,9.71000000000000085,0.00000000000000000,0.00000000000000000,11.71840108800000024
1.45998072624206543,11.46576809861784341,78.86344696855411485,31.32390083750298970,0.62549257346392406,-0.00270936924305665,0.00429692530541513,0.78021358376581862,-0.00222222222222222,0.00222222222222222,0.00111111111111111,-0.19000000000000000,1.84000000000000008,9.71000000000000085,0.00000000000000000,0.00000000000000000,11.71840108800000024
1.47003507614135742,11.45723273981290902,78.87826727870991306,31.33860984810810635,0.62553456990417278,-0.00268801853234564,0.00425096145193605,0.78018023926391888,-0.00222222222222222,0.00222222222222222,0.00111111111111111,-0.19000000000000000,1.84000000000000008,9.71000000000000085,0.00000000000000000,0.00000000000000000,11.71840108800000024
1.48002982139587402,11.49422558795282079,78.85484326045418868,31.35154560557924697,0.62547676797564811,-0.00266630585783479,0.00435980507866579,0.78022605418909563,-0.00111111111111111,-0.00000000000000000,-0.00000000000000000,-0.14999999999999999,1.84000000000000008,9.66999999999999993,0.00000000000000000,0.00000000000000000,11.70522694399999963
1.49012351036071777,11.51330122342042195,78.89255436888245754,31.31702227651103954,0.62551870445758506,-0.00275862275710061,0.00418400614763973,0.78019307512098901,-0.00111111111111111,-0.00000000000000000,-0.00000000000000000,-0.14999999999999999,1.84000000000000008,9.66999999999999993,0.00000000000000000,0.00000000000000000,11.70522694399999963
1.50004220008850098,11.49539832004869311,78.90090420507095814,31.35594741804163732,0.62551478855428089,-0.00273290762238534,0.00420461733809351,0.78019619436963483,-0.00111111111111111,-0.00000000000000000,-0.00000000000000000,-0.14999999999999999,1.84000000000000008,9.66999999999999993,0.00000000000000000,0.00000000000000000,11.70522694399999963
1.51006531715393066,11.51086446067975544,78.90023939665481123,31.35105502219208518,0.62548582052132340,-0.00272803950590180,0.00411697504355542,0.78021990274775199,-0.00111111111111111,-0.00000000000000000,-0.00000000000000000,-0.14999999999999999,1.84000000000000008,9.66999999999999993,0.00000000000000000,0.00000000000000000,11.70522694399999963
1.52011919021606445,11.47445059955303748,78.90875598008287284,31.34235488430452321,0.62553649260132138,-0.00267033191379508,0.00424127624765343,0.78017881112428211,-0.00111111111111111,-0.00000000000000000,-0.00000000000000000,-0.14999999999999999,1.84000000000000008,9.66999999999999993,0.00000000000000000,0.00000000000000000,11.70522694399999963
1.53007292747497559,11.51327088337272642,78.88306125762414922,31.32506234086564589,0.62549222272874216,-0.00274969233709267,0.00420551477349070,0.78021422195663648,-0.00111111111111111,-0.00111111111111111,0.00222222222222222,-0.17000000000000001,1.84000000000000008,9.72000000000000064,0.00000000000000000,0.00000000000000000,11.69205280000000080
1.53999495506286621,11.49628913681515563,78.91561014185937495,31.33852276306058116,0.62552562054879379,-0.00266286955701703,0.00415341562640420,0.78018802624841865,-0.00111111111111111,-0.00111111111111111,0.00222222222222222,-0.17000000000000001,1.84000000000000008,9.72000000000000064,0.00000000000000000,0.00000000000000000,11.69205280000000080
1.55005621910095215,11.43972622704042408,78.85551148688141154,31.27159353071084880,0.62551977363042410,-0.00266787805869827,0.00453049622381605,0.78019059839757932,-0.00111111111111111,-0.00111111111111111,0.00222222222222222,-0.17000000000000001,1.84000000000000008,9.72000000000000064,0.00000000000000000,0.00000000000000000,11.69205280000000080
1.56002449989318848,11.48770682213601013,78.87552445619424191,31.31889104013215785,0.62551937428423476,-0.00274216527689305,0.00433621582178981,0.78019176498922393,-0.00111111111111111,-0.00111111111111111,0.00222222222222222,-0.17000000000000001,1.84000000000000008,9.72000000000000064,0.00000000000000000,0.00000000000000000,11.69205280000000080
1.57019591331481934,11.45773137375362261,78.89271739590441257,31.33405985395344828,0.62556791046225790,-0.00268007476828013,0.00428605174362261,0.78015334156790705,-0.00111111111111111,-0.00111111111111111,0.00222222222222222,-0.17000000000000001,1.84000000000000008,9.72000000000000064,0.00000000000000000,0.00000000000000000,11.69205280000000080
1.58005738258361816,11.43676480673618379,78.88023818651072361,31.35627575218979857,0.62551118077870704,-0.00262285015702908,0.00434118752207146,0.78019871665414808,-0.00111111111111111,-0.00000000000000000,-0.00111111111111111,-0.17000000000000001,1.83000000000000007,9.72000000000000064,0.00000000000000000,0.00000000000000000,11.71840108800000024
1.59002232551574707,11.51167836455116422,78.86443796527144912,31.33958076727968134,0.62547790066731235,-0.00273473002197784,0.00427448014580065,0.78022538144308118,-0.00111111111111111,-0.00000000000000000,-0.00111111111111111,-0.17000000000000001,1.83000000000000007,9.72000000000000064,0.00000000000000000,0.00000000000000000,11.71840108800000024
1.59999465942382812,11.48839830930627670,78.85597833282703562,31.28389316131891462,0.62555021602291339,-0.00272563904060677,0.00445967917827229,0.78016639852478520,-0.00111111111111111,-0.00000000000000000,-0.00111111111111111,-0.17000000000000001,1.83000000000000007,9.72000000000000064,0.00000000000000000,0.00000000000000000,11.71840108800000024
1.60999107360839844,11.52542351122616537,78.85103977637930939,31.30157154808533093,0.62551582409441719,-0.00270714358566257,0.00441171471499491,0.78019431038322906,-0.00111111111111111,-0.00000000000000000,-0.00111111111111111,-0.17000000000000001,1.83000000000000007,9.72000000000000064,0.00000000000000000,0.00000000000000000,11.71840108800000024
1.62012696266174316,11.47456030490456591,78.90124271398674694,31.31903937144453565,0.62555938549575962,-0.00263710449242172,0.00438765668690443,0.78015975887433553,-0.00111111111111111,-0.00000000000000000,-0.00111111111111111,-0.17000000000000001,1.83000000000000007,9.72000000000000064,0.00000000000000000,0.00000000000000000,11.71840108800000024
1.63009786605834961,11.45820887988065273,78.90495859102435361,31.33035082100271040,0.62552751715241239,-0.00262115532243045,0.00437218397162543,0.78018545156727437,0.00222222222222222,0.00222222222222222,-0.00000000000000000,-0.17000000000000001,1.81000000000000005,9.72000000000000064,0.00000000000000000,0.00000000000000000,11.71181401599999994
1.64014744758605957,11.49497525166719925,78.92289923621920877,31.30225529315069011,0.62555189224519481,-0.00267524339122456,0.00424079443465274,0.78016644944769153,0.00222222222222222,0.00222222222222222,-0.00000000000000000,-0.17000000000000001,1.81000000000000005,9.72000000000000064,0.00000000000000000,0.00000000000000000,11.71181401599999994
1.65018200874328613,11.48127255954246628,78.90315611834910214,31.31357098143692141,0.62555632853121912,-0.00268998274991913,0.00426071343263419,0.78016273311943785,0.00222222222222222,0.00222222222222222,-0.00000000000000000,-0.17000000000000001,1.81000000000000005,9.72000000000000064,0.00000000000000000,0.00000000000000000,11.71181401599999994
1.66004228591918945,11.54619747575656596,78.91379102986626037,31.29906803376535507,0.62553694243067470,-0.00267589937779903,0.00426055973871694,0.78017832631246264,0.00222222222222222,0.00222222222222222,-0.00000000000000000,-0.17000000000000001,1.81000000000000005,9.72000000000000064,0.00000000000000000,0.00000000000000000,11.71181401599999994
1.67005133628845215,11.46900049587125636,78.91686902480741139,31.32101587005653798,0.62563444729610240,-0.00257832936851930,0.00441546171807460,0.78009960535304945,0.00222222222222222,0.00222222222222222,-0.00000000000000000,-0.17000000000000001,1.81000000000000005,9.72000000000000064,0.00000000000000000,0.00000000000000000,11.71181401599999994
1.68005585670471191,11.49721257375155936,78.88941086739494324,31.30768070173974493,0.62552324695656092,-0.00269862485602846,0.00436963679798376,0.78018862540738254,0.00222222222222222,-0.00111111111111111,0.00111111111111111,-0.17000000000000001,1.82000000000000006,9.69999999999999929,0.00000000000000000,0.00000000000000000,11.69534633600000006
1.69018030166625977,11.45596947314249725,78.87329632795267287,31.30880781839525184,0.62554727508173658,-0.00251795013650267,0.00454742758213411,0.78016894802812453,0.00222222222222222,-0.00111111111111111,0.00111111111111111,-0.17000000000000001,1.82000000000000006,9.69999999999999929,0.00000000000000000,0.00000000000000000,11.69534633600000006
1.69998002052307129,11.49472367234889703,78.88886607939674889,31.28611958129803483,0.62558814209025548,-0.00265865758825063,0.00445089976612145,0.78013626855002904,0.00222222222222222,-0.00111111111111111,0.00111111111111111,-0.17000000000000001,1.82000000000000006,9.69999999999999929,0.00000000000000000,0.00000000000000000,11.69534633600000006
1.71001195907592773,11.51107401482677517,78.90819394296300970,31.28834773383171708,0.62553767987372910,-0.00273195300998370,0.00428633984953300,0.78017739955835519,0.00222222222222222,-0.00111111111111111,0.00111111111111111,-0.17000000000000001,1.82000000000000006,9.69999999999999929,0.00000000000000000,0.00000000000000000,11.69534633600000006
1.72002768516540527,11.45261726763035881,78.91137050815444809,31.31187019121712467,0.62557726605896835,-0.00260498360338790,0.00435751798758373,0.78014569811516654,-0.00111111111111111,-0.28222222222222221,-0.00222222222222222,-0.17999999999999999,1.84000000000000008,9.69999999999999929,0.00000000000000000,0.00000000000000000,11.71840108800000024
1.73009395599365234,11.50800881085764615,78.93021006790813487,31.29797484946033137,0.62559268722334438,-0.00266656936961511,0.00429564335433073,0.78013346713792764,-0.00111111111111111,-0.28222222222222221,-0.00222222222222222,-0.17999999999999999,1.84000000000000008,9.69999999999999929,0.00000000000000000,0.00000000000000000,11.71840108800000024
1.74003553390502930,11.52260627996981235,78.93304871326948557,31.31077119572472967,0.62554761458764174,-0.00274997303028236,0.00411403247931332,0.78017029824827577,-0.00111111111111111,-0.28222222222222221,-0.00222222222222222,-0.17999999999999999,1.84000000000000008,9.69999999999999929,0.00000000000000000,0.00000000000000000,11.71840108800000024
1.75008702278137207,11.52861891538814554,78.90392051097165904,31.26313911865430484,0.62558536704078505,-0.00272782564138911,0.00432521173674852,0.78013896201583766,-0.00111111111111111,-0.28222222222222221,-0.00222222222222222,-0.17999999999999999,1.84000000000000008,9.69999999999999929,0.00000000000000000,0.00000000000000000,11.71840108800000024
1.76008987426757812,11.47974870797403391,78.88867630871386893,31.31747835366568111,0.62547383664380185,-0.00267425229469553,0.00431756342150012,0.78022861181505498,-0.00111111111111111,-0.28222222222222221,-0.00222222222222222,-0.17999999999999999,1.84000000000000008,9.69999999999999929,0.00000000000000000,0.00000000000000000,11.71840108800000024
1.77015304565429688,11.43623239724522911,78.88738940271501576,31.26556059296106227,0.62555029613097857,-0.00261067774959420,0.00453008758899725,0.78016632180488854,-0.00111111111111111,-0.28222222222222221,-0.00222222222222222,-0.17999999999999999,1.84000000000000008,9.69999999999999929,0.00000000000000000,0.00000000000000000,11.71840108800000024
1.78009510040283203,11.52123710580499427,78.91987117743815361,31.32389392136718342,0.62558170063878149,-0.00274144207022870,0.00412685291441539,0.78014292883181857,-0.00111111111111111,-0.28222222222222221,-0.00222222222222222,-0.17999999999999999,1.84000000000000008,9.69999999999999929,0.00000000000000000,0.00000000000000000,11.71840108800000024
1.79006242752075195,11.47939968424576307,78.88966286261073435,31.33100187674950021,0.62556623447032011,-0.00259972032893155,0.00434836459121962,0.78015461254178176,-0.00111111111111111,-0.28222222222222221,-0.00222222222222222,-0.17999999999999999,1.84000000000000008,9.69999999999999929,0.00000000000000000,0.00000000000000000,11.71840108800000024
1.80003142356872559,11.46827126091648630,78.88967577845623680,31.31827434667360421,0.62551492979556689,-0.00271266315488051,0.00435274284740160,0.78019533944465447,-0.00111111111111111,-0.28222222222222221,-0.00222222222222222,-0.17999999999999999,1.84000000000000008,9.69999999999999929,0.00000000000000000,0.00000000000000000,11.71840108800000024
1.81003403663635254,11.49672950711319608,78.89230136940703630,31.31940494145749199,0.62549753203489777,-0.00279275056280125,0.00420595974610715,0.78020981015696045,-0.00111111111111111,-0.28222222222222221,-0.00222222222222222,-0.17999999999999999,1.84000000000000008,9.69999999999999929,0.00000000000000000,0.00000000000000000,11.71840108800000024
1.81999135017395020,11.43926136580497221,78.88302112990099602,31.31294087495264833,0.62554132529626860,-0.00269216842200930,0.00437819062678611,0.78017410494235884,-0.00111111111111111,-0.28222222222222221,-0.00222222222222222,-0.17999999999999999,1.84000000000000008,9.69999999999999929,0.00000000000000000,0.00000000000000000,11.71840108800000024
1.83006477355957031,11.44463178551663418,78.86474180459019578,31.30835751119206734,0.62556855039407089,-0.00265961904514954,0.00435049156465583,0.78015254175548354,-0.00111111111111111,-0.28222222222222221,-0.00222222222222222,-0.17999999999999999,1.84000000000000008,9.69999999999999929,0.00000000000000000,0.00000000000000000,11.71840108800000024
1.84001088142395020,11.48305929165617556,78.79616906280465116,31.31017571938332367,0.62551912244670582,-0.00276320882218969,0.00446512326570360,0.78019116555157797,-0.00111111111111111,-0.28222222222222221,-0.00222222222222222,-0.17999999999999999,1.84000000000000008,9.69999999999999929,0.00000000000000000,0.00000000000000000,11.71840108800000024
1.85001564025878906,11.46205945183204200,78.87143978810901501,31.24968249267904596,0.62557977630257833,-0.00260102467284559,0.00460761356598806,0.78014226141716858,-0.00111111111111111,-0.28222222222222221,-0.00222222222222222,-0.17999999999999999,1.84000000000000008,9.69999999999999929,0.00000000000000000,0.00000000000000000,11.71840108800000024
1.86004996299743652,11.48555597966645792,78.86136176721045388,31.30858305930809138,0.62549449365758647,-0.00273789701868908,0.00439948887944601,0.78021137316854972,-0.00111111111111111,-0.28222222222222221,-0.00222222222222222,-0.17999999999999999,1.84000000000000008,9.69999999999999929,0.00000000000000000,0.00000000000000000,11.71840108800000024
1.87008857727050781,11.48541857568293345,78.89824106692026362,31.30950488118303099,0.62562944015231203,-0.00263194593764081,0.00445798423027590,0.78010320012924494,-0.00111111111111111,-0.28222222222222221,-0.00222222222222222,-0.17999999999999999,1.84000000000000008,9.69999999999999929,0.00000000000000000,0.00000000000000000,11.71840108800000024
1.88006520271301270,11.49485348481373137,78.89362468398444150,31.31648967709871911,0.62555269160328719,-0.00263390240223505,0.00432129987431967,0.78016550741071233,-0.00111111111111111,-0.28222222222222221,-0.00222222222222222,-0.17999999999999999,1.84000000000000008,9.69999999999999929,0.00000000000000000,0.00000000000000000,11.71840108800000024
1.89016819000244141,11.49760095650514380,78.87922171648223468,31.31845351010318268,0.62553672870079058,-0.00260187966295361,0.00438979713737382,0.78017803157332333,-0.00111111111111111,-0.28222222222222221,-0.00222222222222222,-0.17999999999999999,1.84000000000000008,9.69999999999999929,0.00000000000000000,0.00000000000000000,11.71840108800000024
1.90012025833129883,11.50066822145169532,78.89456917614246834,31.28179353122510165,0.62558706062327030,-0.00266939279576785,0.00440805798934236,0.78013734236197230,-0.00111111111111111,-0.28222222222222221,-0.00222222222222222,-0.17999999999999999,1.84000000000000008,9.69999999999999929,0.00000000000000000,0.00000000000000000,11.71840108800000024
1.91008973121643066,11.52397999715318200,78.92937335737885007,31.28324318989036001,0.62557818323079828,-0.00266666639197512,0.00420673041106333,0.78014558191100203,-0.00111111111111111,-0.28222222222222221,-0.00222222222222222,-0.17999999999999999,1.84000000000000008,9.69999999999999929,0.00000000000000000,0.00000000000000000,11.71840108800000024
1.92010760307312012,11.49457810747844633,78.93190940909705944,31.33169423247644758,0.62560555620669467,-0.00264479864258874,0.00427961156984493,0.78012330948912401,-0.00111111111111111,-0.28222222222222221,-0.00222222222222222,-0.17999999999999999,1.84000000000000008,9.69999999999999929,0.00000000000000000,0.00000000000000000,11.71840108800000024
1.93006563186645508,11.48360176528760768,78.88711239667172492,31.28310799981569801,0.62557587730340380,-0.00260552731773306,0.00446491141977636,0.78014620266299206,-0.00111111111111111,-0.28222222222222221,-0.00222222222222222,-0.17999999999999999,1.84000000000000008,9.69999999999999929,0.00000000000000000,0.00000000000000000,11.71840108800000024
1.94001269340515137,11.47244798042802394,78.90314872110509725,31.27965220472190211,0.62558672314273422,-0.00264185256688655,0.00438015045222124,0.78013786392186257,-0.00111111111111111,0.00222222222222222,0.00111111111111111,-0.17999999999999999,1.83000000000000007,9.72000000000000064,0.00000000000000000,0.00000000000000000,11.70852048000000067
1.94998359680175781,11.50170212383773993,78.89940147546990090,31.30758153109290376,0.62555472674113510,-0.00272203532832163,0.00429637834791419,0.78016371070986545,-0.00111111111111111,0.00222222222222222,0.00111111111111111,-0.17999999999999999,1.83000000000000007,9.72000000000000064,0.00000000000000000,0.00000000000000000,11.70852048000000067
1.95995855331420898,11.46646505880655376,78.87543067835559896,31.25595567429934363,0.62550572755258593,-0.00263429470628648,0.00448551585510215,0.78020223367907915,-0.00111111111111111,0.00222222222222222,0.00111111111111111,-0.17999999999999999,1.83000000000000007,9.72000000000000064,0.00000000000000000,0.00000000000000000,11.70852048000000067
1.96999979019165039,11.43616824694400158,78.89912628250822024,31.26342753790547135,0.62558212136030322,-0.00254969695369036,0.00455538771410174,0.78014085710374192,-0.00111111111111111,0.00222222222222222,0.00111111111111111,-0.17999999999999999,1.83000000000000007,9.72000000000000064,0.00000000000000000,0.00000000000000000,11.70852048000000067
1.97993516921997070,11.49164316506954187,78.88507585189184113,31.32299857357902440,0.62554250370327280,-0.00258602892765575,0.00434033950263751,0.78017373063185591,0.00000000000000000,0.00111111111111111,0.00222222222222222,-0.17000000000000001,1.85000000000000009,9.68999999999999950,0.00000000000000000,0.00000000000000000,11.70852048000000067
1.98999619483947754,11.47356985180103628,78.83487440972365334,31.27071781113835414,0.62556801182605914,-0.00259149353765048,0.00457260489751643,0.78015193265522798,0.00000000000000000,0.00111111111111111,0.00222222222222222,-0.17000000000000001,1.85000000000000009,9.68999999999999950,0.00000000000000000,0.00000000000000000,11.70852048000000067
1.99998664855957031,11.47190290091548093,78.86804516381657493,31.30585073057340040,0.62555007259625728,-0.00269899847566497,0.00436849596057429,0.78016712204827499,0.00000000000000000,0.00111111111111111,0.00222222222222222,-0.17000000000000001,1.85000000000000009,9.68999999999999950,0.00000000000000000,0.00000000000000000,11.70852048000000067
2.00999999046325684,11.41624426574016127,78.85817096447217978,31.25441293382031915,0.62552952340039958,-0.00253371537880700,0.00464294625676874,0.78018256753846105,0.00000000000000000,0.00111111111111111,0.00222222222222222,-0.17000000000000001,1.85000000000000009,9.68999999999999950,0.00000000000000000,0.00000000000000000,11.70852048000000067
2.02001357078552246,11.40147599191560879,78.89247081431436470,31.34695056512586575,0.62558652664560777,-0.00253804783651326,0.00440509498401621,0.78013822565673940,-0.00333333333333333,0.00111111111111111,0.00111111111111111,-0.17999999999999999,1.84000000000000008,9.68999999999999950,0.00000000000000000,0.00000000000000000,11.71840108800000024
2.03007984161376953,11.41636347417370700,78.84370638805668818,31.35090116243927127,0.62548813160698713,-0.00254994509852207,0.00447653634375283,0.78021667222711788,-0.00333333333333333,0.00111111111111111,0.00111111111111111,-0.17999999999999999,1.84000000000000008,9.68999999999999950,0.00000000000000000,0.00000000000000000,11.71840108800000024
2.03997278213500977,11.39667090572880248,78.87493012980269214,31.33753820336159990,0.62555060927185302,-0.00253757442840343,0.00442221549372844,0.78016693083324218,-0.00333333333333333,0.00111111111111111,0.00111111111111111,-0.17999999999999999,1.84000000000000008,9.68999999999999950,0.00000000000000000,0.00000000000000000,11.71840108800000024
2.04999589920043945,11.43377157448069603,78.82276875797639093,31.35172204619484049,0.62550884487676184,-0.00271401792294082,0.00440584233215269,0.78019991517623088,-0.00333333333333333,0.00111111111111111,0.00111111111111111,-0.17999999999999999,1.84000000000000008,9.68999999999999950,0.00000000000000000,0.00000000000000000,11.71840108800000024
2.06019878387451172,11.44194182011372618,78.82081726640564057,31.36594202733058623,0.62545349848047782,-0.00272425363522714,0.00439379455417078,0.78024431702517238,-0.00333333333333333,0.00111111111111111,0.00111111111111111,-0.17999999999999999,1.84000000000000008,9.68999999999999950,0.00000000000000000,0.00000000000000000,11.71840108800000024
2.07009243965148926,11.39461856137915596,78.81012201679257601,31.39577913111252272,0.62553487712336830,-0.00263613377245327,0.00443954518482186,0.78017911965108255,0.00000000000000000,-0.00000000000000000,-0.00111111111111111,-0.17999999999999999,1.85000000000000009,9.69999999999999929,0.00000000000000000,0.00000000000000000,11.69205280000000080
2.08004140853881836,11.43125510968826575,78.80723096493183277,31.39327682321838964,0.62550196902410882,-0.00268752332977095,0.00432864047660846,0.78020595155185768,0.00000000000000000,-0.00000000000000000,-0.00111111111111111,-0.17999999999999999,1.85000000000000009,9.69999999999999929,0.00000000000000000,0.00000000000000000,11.69205280000000080
2.09008812904357910,11.40563613370779272,78.80935708037340248,31.38410657843958873,0.62553087098352189,-0.00260215779262761,0.00452223098328618,0.78018197085574381,0.00000000000000000,-0.00000000000000000,-0.00111111111111111,-0.17999999999999999,1.85000000000000009,9.69999999999999929,0.00000000000000000,0.00000000000000000,11.69205280000000080
2.10005974769592285,11.40630547306920484,78.80898758252966729,31.38180977932912796,0.62555697171094271,-0.00265987338429831,0.00442954950739729,0.78016138029806092,0.00000000000000000,-0.00000000000000000,-0.00111111111111111,-0.17999999999999999,1.85000000000000009,9.69999999999999929,0.00000000000000000,0.00000000000000000,11.69205280000000080
2.11015534400939941,11.39952704372505288,78.80470403133578827,31.37816203764717216,0.62547547193101960,-0.00264202029276543,0.00443855609798554,0.78022673176532842,0.00000000000000000,-0.00000000000000000,-0.00111111111111111,-0.17999999999999999,1.85000000000000009,9.69999999999999929,0.00000000000000000,0.00000000000000000,11.69205280000000080
2.12001395225524902,11.37837002679955312,78.81537049457932653,31.40328952748823710,0.62551358147304703,-0.00259246272081115,0.00450132991760233,0.78019598599247841,0.00000000000000000,-0.00000000000000000,-0.00111111111111111,-0.17999999999999999,1.85000000000000009,9.69999999999999929,0.00000000000000000,0.00000000000000000,11.69205280000000080
2.13012838363647461,11.38740132834019825,78.80526598657542081,31.40622571738319735,0.62553575430673114,-0.00264926460992057,0.00443866473235660,0.78017837687052649,-0.00222222222222222,0.00222222222222222,-0.00000000000000000,-0.17999999999999999,1.83000000000000007,9.71000000000000085,-0.00000000000000000,0.00000000000000000,11.69534633600000006
2.14012074470520020,11.37061872248333749,78.77167632498630212,31.45421136834244535,0.62546314521069968,-0.00269036481357629,0.00431640320396942,0.78023713355856783,-0.00222222222222222,0.00222222222222222,-0.00000000000000000,-0.17999999999999999,1.83000000000000007,9.71000000000000085,-0.00000000000000000,0.00000000000000000,11.69534633600000006
2.15008401870727539,11.39584045351955410,78.77057119253056783,31.37302546820662386,0.62551206496473732,-0.00277308287704166,0.00452789730197511,0.78019642702394509,-0.00222222222222222,0.00222222222222222,-0.00000000000000000,-0.17999999999999999,1.83000000000000007,9.71000000000000085,-0.00000000000000000,0.00000000000000000,11.69534633600000006
2.16012048721313477,11.36706173078604820,78.78366819754401718,31.37640332681784727,0.62551682224189131,-0.00261577005444278,0.00452153006369820,0.78019319312931201,-0.00222222222222222,0.00222222222222222,-0.00000000000000000,-0.17999999999999999,1.83000000000000007,9.71000000000000085,-0.00000000000000000,0.00000000000000000,11.69534633600000006
2.17005562782287598,11.37483489177027174,78.78439246137709517,31.42914017994509379,0.62554045575496930,-0.00272248263312236,0.00440631042851558,0.78017453863259734,-0.00222222222222222,0.00222222222222222,-0.00000000000000000,-0.17999999999999999,1.83000000000000007,9.71000000000000085,-0.00000000000000000,0.00000000000000000,11.69534633600000006
2.18006014823913574,11.36126479640466336,78.73407478411286320,31.40961015615102880,0.62545578714407690,-0.00267738621275863,0.00458375094995523,0.78024155180192734,-0.00222222222222222,0.00222222222222222,-0.00000000000000000,-0.17999999999999999,1.83000000000000007,9.71000000000000085,-0.00000000000000000,0.00000000000000000,11.69534633600000006
2.19001889228820801,11.39924422558748951,78.75009471375638270,31.44988487245483100,0.62550988276558184,-0.00267990066587857,0.00447085104412407,0.78019883118724975,0.00000000000000000,0.00111111111111111,-0.00111111111111111,-0.19000000000000000,1.83000000000000007,9.65000000000000036,12.50000000000000000,12.50000000000000000,11.70193340800000037
2.19999957084655762,11.36968816155094508,78.77651253236800244,31.41876026492518648,0.62552923476736966,-0.00260755976794923,0.00455933823438407,0.78018304872527766,0.00000000000000000,0.00111111111111111,-0.00111111111111111,-0.19000000000000000,1.83000000000000007,9.65000000000000036,12.50000000000000000,12.50000000000000000,11.70193340800000037
2.21001791954040527,11.35967594367534161,78.79203164038223406,31.45329114970911633,0.62525327484827631,-0.00252725553052898,0.00453930493587777,0.78040460658666544,0.00000000000000000,0.00111111111111111,-0.00111111111111111,-0.19000000000000000,1.83000000000000007,9.65000000000000036,12.50000000000000000,12.50000000000000000,11.70193340800000037
2.22004222869873047,11.24265135736474974,78.95954169031703884,31.55359838359083824,0.62502723681935690,-0.00232782449836537,0.00455872314761739,0.78058615956877386,0.00000000000000000,0.00111111111111111,-0.00111111111111111,-0.19000000000000000,1.83000000000000007,9.65000000000000036,12.50000000000000000,12.50000000000000000,11.70193340800000037
2.23002243041992188,11.21280268940884639,79.18742934660453159,31.56257496532143492,0.62468386337140047,-0.00246763835240539,0.00446038668015533,0.78086111860881269,0.00222222222222222,-0.00111111111111111,-0.00000000000000000,-0.31000000000000000,2.00000000000000000,9.86999999999999922,15.50000000000000000,15.50000000000000000,11.71840108800000024
2.24013829231262207,11.16657558417441010,79.66170240762231458,31.49105183378359030,0.62459695113169345,-0.00260410202283905,0.00452025265163137,0.78092985255118330,0.00222222222222222,-0.00111111111111111,-0.00000000000000000,-0.31000000000000000,2.00000000000000000,9.86999999999999922,15.50000000000000000,15.50000000000000000,11.71840108800000024
2.25009131431579590,10.95965111921024970,80.21222632638090033,31.51641848910047372,0.62457929839648507,-0.00258996412923598,0.00459955464420595,0.78094355506492208,0.00222222222222222,-0.00111111111111111,-0.00000000000000000,-0.31000000000000000,2.00000000000000000,9.86999999999999922,15.50000000000000000,15.50000000000000000,11.71840108800000024
2.26008105278015137,10.81365589721494835,80.88832866357911655,31.50748134121792887,0.62448672033714681,-0.00273317751816159,0.00467549943799398,0.78101664871385024,0.00222222222222222,-0.00111111111111111,-0.00000000000000000,-0.31000000000000000,2.00000000000000000,9.86999999999999922,15.50000000000000000,15.50000000000000000,11.71840108800000024
2.27009677886962891,10.61548922180318755,81.61509398585904762,31.53775747398647411,0.62436156250320463,-0.00278017490333750,0.00474611767653184,0.78111611445614448,0.00777777777777778,-0.13555555555555557,0.10111111111111111,1.39999999999999991,1.95999999999999996,9.51999999999999957,15.50000000000000000,15.50000000000000000,11.67229158399999989
2.28002524375915527,10.47068775522839168,82.26432433282184320,31.55601039711119427,0.62432847955726334,-0.00282682012962373,0.00467349754782685,0.78114282760730802,0.00777777777777778,-0.13555555555555557,0.10111111111111111,1.39999999999999991,1.95999999999999996,9.51999999999999957,15.50000000000000000,15.50000000000000000,11.67229158399999989
2.28998470306396484,10.36160686215580107,83.13325226493724074,31.58125466256694480,0.62422202396292303,-0.00287949035394302,0.00432276283094802,0.78122972745309716,0.00777777777777778,-0.13555555555555557,0.10111111111111111,1.39999999999999991,1.95999999999999996,9.51999999999999957,15.50000000000000000,15.50000000000000000,11.67229158399999989
2.29998826980590820,10.32713089128191086,83.88574807666249455,31.59935505266411226,0.62421497265107617,-0.00302008835586116,0.00393132173219003,0.78123689857429102,0.00777777777777778,-0.13555555555555557,0.10111111111111111,1.39999999999999991,1.95999999999999996,9.51999999999999957,15.50000000000000000,15.50000000000000000,11.67229158399999989
2.31000185012817383,10.28495853902931323,84.75366103294008724,31.61048137737891750,0.62415442412288302,-0.00313030934966291,0.00353012565006545,0.78128675543880988,0.00777777777777778,-0.13555555555555557,0.10111111111111111,1.39999999999999991,1.95999999999999996,9.51999999999999957,15.50000000000000000,15.50000000000000000,11.67229158399999989
2.31992816925048828,10.16472934092109881,85.43821179264415377,31.64364185422929765,0.62410672422516089,-0.00329503766877687,0.00346614895756879,0.78132446865249539,0.00777777777777778,-0.13555555555555557,0.10111111111111111,1.39999999999999991,1.95999999999999996,9.51999999999999957,15.50000000000000000,15.50000000000000000,11.67229158399999989
2.33005428314208984,9.98408221800010587,86.21809229135095620,31.65928920987120776,0.62395028887290582,-0.00340084931415190,0.00341475666140052,0.78144917344399489,0.00777777777777778,-0.13555555555555557,0.10111111111111111,1.39999999999999991,1.95999999999999996,9.51999999999999957,15.50000000000000000,15.50000000000000000,11.67229158399999989
2.33992767333984375,9.69790859055375165,86.93055529667792314,31.68907562034371850,0.62373601272584267,-0.00331066972354780,0.00359241955833362,0.78161980554267330,-0.01000000000000000,0.03333333333333333,0.01888888888888889,-0.20999999999999999,1.69999999999999996,9.76999999999999957,18.50000000000000000,18.50000000000000000,11.68546572800000050
2.34995603561401367,9.53862190801316068,87.60891420552655973,31.66798387475409626,0.62350900701221612,-0.00350155166336582,0.00357952685749401,0.78180013065876741,-0.01000000000000000,0.03333333333333333,0.01888888888888889,-0.20999999999999999,1.69999999999999996,9.76999999999999957,18.50000000000000000,18.50000000000000000,11.68546572800000050
2.35997128486633301,9.35808849258106612,88.52367447489815788,31.71435283237260805,0.62329330949022788,-0.00329047419883402,0.00334628018878272,0.78197405681593057,-0.01000000000000000,0.03333333333333333,0.01888888888888889,-0.20999999999999999,1.69999999999999996,9.76999999999999957,18.50000000000000000,18.50000000000000000,11.68546572800000050
2.36996841430664062,9.21872888464738161,89.41109261741013370,31.72435706756853335,0.62312228671127623,-0.00315279172347130,0.00304502761311576,0.78211214254408179,-0.01000000000000000,0.03333333333333333,0.01888888888888889,-0.20999999999999999,1.69999999999999996,9.76999999999999957,18.50000000000000000,18.50000000000000000,11.68546572800000050
2.38001847267150879,9.01746936581074543,90.30592538467651309,31.49537846887824344,0.62321067500957084,-0.00287684518596000,0.00377633126323208,0.78203958828059394,-0.00333333333333333,-0.00333333333333333,0.03666666666666667,-0.19000000000000000,1.82000000000000006,9.81000000000000050,20.00000000000000000,20.00000000000000000,11.69205280000000080
2.38995528221130371,8.68286338950192693,91.27175548371461389,31.44042545332124305,0.62300150699244250,-0.00263902923637854,0.00422581993856534,0.78220476875028211,-0.00333333333333333,-0.00333333333333333,0.03666666666666667,-0.19000000000000000,1.82000000000000006,9.81000000000000050,20.00000000000000000,20.00000000000000000,11.69205280000000080
2.39992809295654297,8.47382759561758370,92.46497358808768752,31.66221839691979412,0.62255528658569836,-0.00291094613147020,0.00275689411794772,0.78256555065479405,-0.00333333333333333,-0.00333333333333333,0.03666666666666667,-0.19000000000000000,1.82000000000000006,9.81000000000000050,20.00000000000000000,20.00000000000000000,11.69205280000000080
2.40998029708862305,8.28919981597771027,93.61646616539404420,31.68630831837964124,0.62232980963687079,-0.00281908345356130,0.00251687361747470,0.78274601637632857,-0.00333333333333333,-0.00333333333333333,0.03666666666666667,-0.19000000000000000,1.82000000000000006,9.81000000000000050,20.00000000000000000,20.00000000000000000,11.69205280000000080
2.41996598243713379,7.99860259212942015,94.66656974884499220,31.70100289778975977,0.62221122561456077,-0.00258963546762871,0.00256551213506895,0.78284091784656717,-0.00333333333333333,-0.00333333333333333,0.03666666666666667,-0.19000000000000000,1.82000000000000006,9.81000000000000050,20.00000000000000000,20.00000000000000000,11.69205280000000080
2.43013310432434082,7.90310876266343598,95.80550496356435985,31.61066160283145265,0.62226511045947319,-0.00262566402220423,0.00270180523734947,0.78279750794299341,-0.00333333333333333,-0.00333333333333333,0.03666666666666667,-0.19000000000000000,1.82000000000000006,9.81000000000000050,20.00000000000000000,20.00000000000000000,11.69205280000000080
2.43997120857238770,7.57730395199148621,96.83538844480763430,31.62307943973260649,0.62205956124165707,-0.00252718733581488,0.00289142385098305,0.78296050683295726,0.00888888888888889,-0.00333333333333333,0.05111111111111111,0.33000000000000002,1.84000000000000008,9.71000000000000085,23.69999999999999929,23.69999999999999929,11.68546572800000050
2.45001482963562012,7.28798229174293954,97.83048647316167035,31.64902618659971267,0.62193540715607298,-0.00242697489202545,0.00282292048044645,0.78305969774880169,0.00888888888888889,-0.00333333333333333,0.05111111111111111,0.33000000000000002,1.84000000000000008,9.71000000000000085,23.69999999999999929,23.69999999999999929,11.68546572800000050
2.46002721786499023,7.05446799769167399,98.92017849187398326,31.60843263852555296,0.62180912996550808,-0.00238753144400827,0.00285061883171314,0.78315999614217902,0.00888888888888889,-0.00333333333333333,0.05111111111111111,0.33000000000000002,1.84000000000000008,9.71000000000000085,23.69999999999999929,23.69999999999999929,11.68546572800000050
2.47003483772277832,6.71280149388417158,100.06199932678426023,31.70813212511115253,0.62164323444767056,-0.00212841853732439,0.00273382428243977,0.78329284760219853,0.00888888888888889,-0.00333333333333333,0.05111111111111111,0.33000000000000002,1.84000000000000008,9.71000000000000085,23.69999999999999929,23.69999999999999929,11.68546572800000050
2.48002529144287109,6.36902123845506640,101.32718726501911988,31.66721198695339368,0.62132694724004667,-0.00222419655937991,0.00274353001220053,0.78354345803286618,0.00555555555555556,0.01777777777777778,0.02222222222222222,1.46999999999999997,1.67999999999999994,9.61999999999999922,26.69999999999999929,26.69999999999999929,11.66241097600000032
2.48999238014221191,6.05944955807032226,102.67198652791471147,31.63847289000475271,0.62109736622251721,-0.00211468926383676,0.00294941696517275,0.78372500961774572,0.00555555555555556,0.01777777777777778,0.02222222222222222,1.46999999999999997,1.67999999999999994,9.61999999999999922,26.69999999999999929,26.69999999999999929,11.66241097600000032
2.50001502037048340,5.78907500460206403,103.97303458171886348,31.60235663844656884,0.62108817453635512,-0.00218271517247970,0.00280045152946191,0.78373265382833479,0.00555555555555556,0.01777777777777778,0.02222222222222222,1.46999999999999997,1.67999999999999994,9.61999999999999922,26.69999999999999929,26.69999999999999929,11.66241097600000032
2.51002025604248047,5.54852772478962653,105.47740632179115039,31.63395449573227936,0.62103213202701124,-0.00212323656616056,0.00264024582589630,0.78377778225620032,0.00555555555555556,0.01777777777777778,0.02222222222222222,1.46999999999999997,1.67999999999999994,9.61999999999999922,26.69999999999999929,26.69999999999999929,11.66241097600000032
2.52000594139099121,5.37851835870620665,106.94621063957561091,31.75106039783291223,0.62107076447004483,-0.00215294729081026,0.00226189100620628,0.78374827220711207,0.00555555555555556,0.01777777777777778,0.02222222222222222,1.46999999999999997,1.67999999999999994,9.61999999999999922,26.69999999999999929,26.69999999999999929,11.66241097600000032
2.53004884719848633,4.87962418445785318,108.37975985991472783,31.76271895352994434,0.62060474966181634,-0.00206842733284618,0.00231667542239377,0.78411740149071485,0.00555555555555556,0.01777777777777778,0.02222222222222222,1.46999999999999997,1.67999999999999994,9.61999999999999922,26.69999999999999929,26.69999999999999929,11.66241097600000032
2.53997278213500977,4.42019243123492789,110.04423615070591325,31.72354383003851197,0.62023448228562483,-0.00201849143024503,0.00219232480532892,0.78441080205984992,-0.00666666666666667,-0.00333333333333333,0.04666666666666667,0.62000000000000000,1.61000000000000010,9.66999999999999993,41.00000000000000000,41.00000000000000000,11.71510755200000098
2.54999732971191406,4.05444423218313421,111.58327292949137188,31.80891518896622117,0.62008250014281685,-0.00180517170011742,0.00187874433370658,0.78453228403392983,-0.00666666666666667,-0.00333333333333333,0.04666666666666667,0.62000000000000000,1.61000000000000010,9.66999999999999993,41.00000000000000000,41.00000000000000000,11.71510755200000098
2.56000709533691406,3.66237934431604151,113.35833266926935892,31.90631457004833393,0.61997587687279065,-0.00179515469748080,0.00155904034140033,0.78461726906093510,-0.00666666666666667,-0.00333333333333333,0.04666666666666667,0.62000000000000000,1.61000000000000010,9.66999999999999993,41.00000000000000000,41.00000000000000000,11.71510755200000098
2.56999731063842773,3.27213938976280394,115.46025832859287164,31.93260699433069405,0.61989296110486136,-0.00185893353681175,0.00126260093838973,0.78468316343453126,-0.00666666666666667,-0.00333333333333333,0.04666666666666667,0.62000000000000000,1.61000000000000010,9.66999999999999993,41.00000000000000000,41.00000000000000000,11.71510755200000098
2.58010864257812500,2.81070468836845544,117.46971383118530241,31.89259674877079576,0.61968737770172500,-0.00177975099394459,0.00129107588674917,0.78484566605582673,0.00444444444444444,-0.00666666666666667,0.07333333333333333,-0.03000000000000000,1.65999999999999992,9.66999999999999993,46.20000000000000284,46.20000000000000284,11.66570451199999958
2.59044218063354492,2.13661264705913334,119.87252023684631297,31.91649851483959210,0.61927170289510169,-0.00162175439444193,0.00138303102615638,0.78517387573152586,0.00444444444444444,-0.00666666666666667,0.07333333333333333,-0.03000000000000000,1.65999999999999992,9.66999999999999993,46.20000000000000284,46.20000000000000284,11.66570451199999958
2.59998250007629395,1.61113550092928404,122.21161946396459541,31.83455441781462625,0.61904362737500829,-0.00178280287783921,0.00127193912515777,0.78535354534830537,0.00444444444444444,-0.00666666666666667,0.07333333333333333,-0.03000000000000000,1.65999999999999992,9.66999999999999993,46.20000000000000284,46.20000000000000284,11.66570451199999958
2.60996031761169434,1.16963767048933676,125.12953295188860636,32.00191503320427699,0.61909583504907628,-0.00187407136594757,0.00071477883842032,0.78531288285155165,0.00444444444444444,-0.00666666666666667,0.07333333333333333,-0.03000000000000000,1.65999999999999992,9.66999999999999993,46.20000000000000284,46.20000000000000284,11.66570451199999958
2.61997532844543457,0.41656461270059236,127.69234865344346019,31.92982636775156280,0.61883336936296451,-0.00172078441929385,0.00114322594595857,0.78551956875580120,0.00444444444444444,-0.00666666666666667,0.07333333333333333,-0.03000000000000000,1.65999999999999992,9.66999999999999993,46.20000000000000284,46.20000000000000284,11.66570451199999958
2.63011550903320312,-0.31616955293235566,130.65100486307355254,31.73932906367458529,0.61849709403534825,-0.00175788580053666,0.00152869981179208,0.78578363280500285,-0.00111111111111111,-0.04777777777777778,0.08444444444444445,1.03000000000000003,1.16999999999999993,10.91999999999999993,51.39999999999999858,51.39999999999999858,11.64923683199999971
2.63997125625610352,-1.21182956828805288,133.55303302998299841,31.71476302517197254,0.61809274489987431,-0.00150499272901102,0.00201850270247816,0.78610115083611487,-0.00111111111111111,-0.04777777777777778,0.08444444444444445,1.03000000000000003,1.16999999999999993,10.91999999999999993,51.39999999999999858,51.39999999999999858,11.64923683199999971
2.64999437332153320,-1.87011567038859994,136.37970149060444669,31.54965000330783553,0.61793047512795174,-0.00143682883164907,0.00219424836951160,0.78622836930827233,-0.00111111111111111,-0.04777777777777778,0.08444444444444445,1.03000000000000003,1.16999999999999993,10.91999999999999993,51.39999999999999858,51.39999999999999858,11.64923683199999971
2.66000986099243164,-2.64684928884168391,139.55072117616319360,31.66974033275050360,0.61756788529061479,-0.00141141277129689,0.00172518446400583,0.78651442371404257,-0.00111111111111111,-0.04777777777777778,0.08444444444444445,1.03000000000000003,1.16999999999999993,10.91999999999999993,51.39999999999999858,51.39999999999999858,11.64923683199999971
2.66996121406555176,-3.33882818646093460,142.46681716591385225,31.76368926223808842,0.61722674631700236,-0.00152068313975633,0.00142631611611937,0.78678256003552316,-0.00111111111111111,-0.04777777777777778,0.08444444444444445,1.03000000000000003,1.16999999999999993,10.91999999999999993,51.39999999999999858,51.39999999999999858,11.64923683199999971
2.68004703521728516,-4.01325971665345094,145.85663753242815233,31.93987420693414947,0.61687041379698870,-0.00161341739195915,0.00088651019099693,0.78706257919299671,-0.00111111111111111,-0.04777777777777778,0.08444444444444445,1.03000000000000003,1.16999999999999993,10.91999999999999993,51.39999999999999858,51.39999999999999858,11.64923683199999971
2.69010567665100098,-4.93269649748451844,149.27456704321517122,31.91743039542152971,0.61639426351512472,-0.00149153762202893,0.00084086116535192,0.78743582606690532,-0.00333333333333333,-0.04000000000000000,0.07000000000000001,1.29000000000000004,1.82000000000000006,9.35999999999999943,55.20000000000000284,55.20000000000000284,11.67887865600000019
2.69999718666076660,-5.72961393740344249,152.35157717444769787,31.95246284173439832,0.61599669511119459,-0.00148370022787533,0.00072513133117025,0.78774700534516284,-0.00333333333333333,-0.04000000000000000,0.07000000000000001,1.29000000000000004,1.82000000000000006,9.35999999999999943,55.20000000000000284,55.20000000000000284,11.67887865600000019
2.71013188362121582,-6.52234055644081945,155.81009451279760469,32.06691738911178646,0.61581300463554711,-0.00154447413509315,0.00062707910312504,0.78789057913722027,-0.00333333333333333,-0.04000000000000000,0.07000000000000001,1.29000000000000004,1.82000000000000006,9.35999999999999943,55.20000000000000284,55.20000000000000284,11.67887865600000019
2.71997785568237305,-7.27664683597870532,158.98430398315130674,31.89288616894641848,0.61563539207357176,-0.00137669319533201,0.00091261744891640,0.78802940038532643,-0.00333333333333333,-0.04000000000000000,0.07000000000000001,1.29000000000000004,1.82000000000000006,9.35999999999999943,55.20000000000000284,55.20000000000000284,11.67887865600000019
2.73007726669311523,-8.26267097989232013,162.48051362854721447,31.83948897540932421,0.61525188565904954,-0.00112898418176703,0.00148441233649288,0.78832838278709494,-0.01222222222222222,0.00444444444444444,0.10222222222222223,1.17999999999999994,1.65999999999999992,9.49000000000000021,57.39999999999999858,57.39999999999999858,11.63935622400000014
2.74022555351257324,-9.20720042630020430,166.09497301897863508,31.77958373977422468,0.61487496153761212,-0.00115363451239062,0.00154468027823170,0.78862225733513847,-0.01222222222222222,0.00444444444444444,0.10222222222222223,1.17999999999999994,1.65999999999999992,9.49000000000000021,57.39999999999999858,57.39999999999999858,11.63935622400000014
2.75005364418029785,-10.07018227350151562,169.52507455979892370,31.98060785267452744,0.61446445105898218,-0.00091142425809239,0.00124326390275268,0.78894300300178499,-0.01222222222222222,0.00444444444444444,0.10222222222222223,1.17999999999999994,1.65999999999999992,9.49000000000000021,57.39999999999999858,57.39999999999999858,11.63935622400000014
2.76004242897033691,-11.16425824456118754,173.26150370824771585,32.17370545937863824,0.61396194647915525,-0.00082681741116189,0.00086740632471923,0.78933471496872787,-0.01222222222222222,0.00444444444444444,0.10222222222222223,1.17999999999999994,1.65999999999999992,9.49000000000000021,57.39999999999999858,57.39999999999999858,11.63935622400000014
2.77004718780517578,-11.96795492298019781,176.79859880183792598,32.24120216606275591,0.61372530948753834,-0.00089484416784323,0.00040478018119495,0.78951901807451463,-0.01222222222222222,0.00444444444444444,0.10222222222222223,1.17999999999999994,1.65999999999999992,9.49000000000000021,57.39999999999999858,57.39999999999999858,11.63935622400000014
2.78003644943237305,-12.95355042236894327,180.62927682165414467,32.10830327970658260,0.61313014351152006,-0.00137867132479548,0.00040524889449621,0.78998060872166642,-0.02111111111111111,0.26555555555555554,0.08444444444444445,-0.09000000000000000,2.27999999999999980,7.88999999999999968,58.20000000000000284,58.20000000000000284,11.66241097600000032
2.78996062278747559,-13.99311499729270736,184.53745712342575303,32.22442780755323355,0.61273447319773011,-0.00128087296988492,0.00017184146394914,0.79028779263635718,-0.02111111111111111,0.26555555555555554,0.08444444444444445,-0.09000000000000000,2.27999999999999980,7.88999999999999968,58.20000000000000284,58.20000000000000284,11.66241097600000032
2.79997992515563965,-14.87725999829475576,188.11462066148996541,32.17662494702237552,0.61249887257993618,-0.00129504890146821,-0.00000728160476117,0.79047040038424488,-0.02111111111111111,0.26555555555555554,0.08444444444444445,-0.09000000000000000,2.27999999999999980,7.88999999999999968,58.20000000000000284,58.20000000000000284,11.66241097600000032
2.80996060371398926,-15.95961654874704472,191.92036799042730877,31.98316491183239307,0.61207688318880160,-0.00126400965738301,0.00065746595787668,0.79079697715910779,-0.02111111111111111,0.26555555555555554,0.08444444444444445,-0.09000000000000000,2.27999999999999980,7.88999999999999968,58.20000000000000284,58.20000000000000284,11.66241097600000032
2.82004356384277344,-16.94717639387805619,195.93924341835494829,32.13364562661610790,0.61169501739393584,-0.00107871333156474,0.00055143486919434,0.79109274929844087,-0.02111111111111111,0.26555555555555554,0.08444444444444445,-0.09000000000000000,2.27999999999999980,7.88999999999999968,58.20000000000000284,58.20000000000000284,11.66241097600000032
2.82996106147766113,-17.74073385502609312,199.45828497003341795,31.95075114899168867,0.61149023374006828,-0.00123775898942248,0.00037503496992768,0.79125092185852952,-0.02111111111111111,0.26555555555555554,0.08444444444444445,-0.09000000000000000,2.27999999999999980,7.88999999999999968,58.20000000000000284,58.20000000000000284,11.66241097600000032
2.83997297286987305,-18.92228742054588153,203.42510308101932992,32.10909846195538364,0.61090950265881727,-0.00129308505517769,0.00017017862045085,0.79169936120438666,-0.02111111111111111,0.26555555555555554,0.08444444444444445,-0.09000000000000000,2.27999999999999980,7.88999999999999968,58.20000000000000284,58.20000000000000284,11.66241097600000032
2.84996104240417480,-19.83848765838784445,206.96475568835720082,32.06071156625294094,0.61038010630905060,-0.00158756216003118,0.00019304354068236,0.79210704339926918,-0.01777777777777778,-0.00111111111111111,0.09000000000000000,0.22000000000000000,1.31000000000000005,8.58999999999999986,60.89999999999999858,67.40000000000000568,11.67558512000000093
2.85998225212097168,-20.95646622089539335,210.97384899007070658,32.22797501919217922,0.61010749934450548,-0.00112178596588610,0.00038098824131229,0.79231776181517055,-0.01777777777777778,-0.00111111111111111,0.09000000000000000,0.22000000000000000,1.31000000000000005,8.58999999999999986,60.89999999999999858,67.40000000000000568,11.67558512000000093
2.87015604972839355,-21.92607380251887506,214.59597055153994916,32.12087112960755775,0.60997247005717525,-0.00085793647043594,0.00105572556283494,0.79242143784787700,-0.01777777777777778,-0.00111111111111111,0.09000000000000000,0.22000000000000000,1.31000000000000005,8.58999999999999986,60.89999999999999858,67.40000000000000568,11.67558512000000093
2.88023734092712402,-22.84590522286343983,218.69399349812428568,31.99862619636307315,0.61013906978582833,-0.00104265612706434,0.00148226172714270,0.79229226380752749,-0.01777777777777778,-0.00111111111111111,0.09000000000000000,0.22000000000000000,1.31000000000000005,8.58999999999999986,60.89999999999999858,67.40000000000000568,11.67558512000000093
2.89005303382873535,-23.93982478077939291,222.95709909420858708,31.99845223408587458,0.61014402759231923,-0.00111619933720856,0.00132460889749247,0.79228862487336738,-0.01777777777777778,-0.00111111111111111,0.09000000000000000,0.22000000000000000,1.31000000000000005,8.58999999999999986,60.89999999999999858,67.40000000000000568,11.67558512000000093
2.90012717247009277,-24.94988654781543858,226.73290196198001922,31.83898198485677611,0.61003189025960092,-0.00161525855920683,0.00112410318582014,0.79237441919720808,-0.01777777777777778,-0.00111111111111111,0.09000000000000000,0.22000000000000000,1.31000000000000005,8.58999999999999986,60.89999999999999858,67.40000000000000568,11.67558512000000093
2.91004848480224609,-26.12662604812848244,231.14218650106499808,32.10565498086446468,0.61008052566826332,-0.00164753036634298,0.00057558937726855,0.79233749535213593,-0.01777777777777778,-0.00111111111111111,0.09000000000000000,0.22000000000000000,1.31000000000000005,8.58999999999999986,60.89999999999999858,67.40000000000000568,11.67558512000000093
2.91995835304260254,-27.09588987665430793,235.10948641898536948,32.12715468735468960,0.61016196794467270,-0.00197089847307786,0.00014057157323517,0.79227423829929322,-0.01777777777777778,-0.00111111111111111,0.09000000000000000,0.22000000000000000,1.31000000000000005,8.58999999999999986,60.89999999999999858,67.40000000000000568,11.67558512000000093
2.93002462387084961,-28.27779103044753128,239.63545770099736387,32.09062980900323936,0.61055744287826974,-0.00156073987031627,0.00051829533037842,0.79197026737558518,0.01111111111111111,-0.00777777777777778,0.11888888888888889,0.79000000000000004,1.31000000000000005,9.46000000000000085,59.79999999999999716,71.50000000000000000,11.66241097600000032
2.93997001647949219,-29.42346696969761410,244.04340596674614972,31.92810210887578037,0.61084462942567330,-0.00163078053521338,0.00115243984996908,0.79174797198290947,0.01111111111111111,-0.00777777777777778,0.11888888888888889,0.79000000000000004,1.31000000000000005,9.46000000000000085,59.79999999999999716,71.50000000000000000,11.66241097600000032
2.94999313354492188,-30.39740372035073435,248.13391238640124925,31.81119488628618441,0.61118890705757856,-0.00172057856693490,0.00114658550056148,0.79148205591841880,0.01111111111111111,-0.00777777777777778,0.11888888888888889,0.79000000000000004,1.31000000000000005,9.46000000000000085,59.79999999999999716,71.50000000000000000,11.66241097600000032
2.96000003814697266,-31.65561033926013579,252.60727215222502196,31.80190244278898248,0.61144876808766457,-0.00156038445195432,0.00126895378935921,0.79128146633212626,0.01111111111111111,-0.00777777777777778,0.11888888888888889,0.79000000000000004,1.31000000000000005,9.46000000000000085,59.79999999999999716,71.50000000000000000,11.66241097600000032
2.97000551223754883,-32.50391884221820504,257.24350713235770627,31.68572525009399143,0.61200587959347086,-0.00196837679486360,0.00069759276608779,0.79085045501671714,-0.03888888888888889,0.01555555555555556,-0.04555555555555556,1.85000000000000009,2.58999999999999986,9.08999999999999986,57.20000000000000284,80.09999999999999432,11.65582390400000001
2.98000645637512207,-33.40851325364582891,261.42043671530910842,31.76912486285565151,0.61250949684174938,-0.00194828598705911,0.00065134083603310,0.79046055955720806,-0.03888888888888889,0.01555555555555556,-0.04555555555555556,1.85000000000000009,2.58999999999999986,9.08999999999999986,57.20000000000000284,80.09999999999999432,11.65582390400000001
2.98995637893676758,-34.73224768520451988,265.90957496969059548,31.58123108549735036,0.61293389311726765,-0.00167203612807675,0.00150036851407351,0.79013099917521146,-0.03888888888888889,0.01555555555555556,-0.04555555555555556,1.85000000000000009,2.58999999999999986,9.08999999999999986,57.20000000000000284,80.09999999999999432,11.65582390400000001
2.99994921684265137,-35.64461973702029951,270.18921875197736426,31.47704780136265512,0.61372297870117887,-0.00207063828074033,0.00169567243374533,0.78951690454749623,-0.03888888888888889,0.01555555555555556,-0.04555555555555556,1.85000000000000009,2.58999999999999986,9.08999999999999986,57.20000000000000284,80.09999999999999432,11.65582390400000001
3.00997734069824219,-36.74637223360790017,274.97608161553836226,31.35386844289395469,0.61450185414003999,-0.00224499552371177,0.00142334089066997,0.78891089823519400,0.01666666666666667,0.03333333333333333,-0.08555555555555555,1.37999999999999989,1.50000000000000000,10.65000000000000036,57.20000000000000284,92.09999999999999432,11.63276915199999983
3.01995205879211426,-37.69973716720451051,279.44372447430845341,31.48207256296993606,0.61542052791723867,-0.00233109046194717,0.00058311433759553,0.78819528025292973,0.01666666666666667,0.03333333333333333,-0.08555555555555555,1.37999999999999989,1.50000000000000000,10.65000000000000036,57.20000000000000284,92.09999999999999432,11.63276915199999983
3.03001809120178223,-38.92284436854888696,284.33419287695693356,31.63842692542869983,0.61674667989644827,-0.00181836430281158,0.00033136617628984,0.78715952422900104,0.01666666666666667,0.03333333333333333,-0.08555555555555555,1.37999999999999989,1.50000000000000000,10.65000000000000036,57.20000000000000284,92.09999999999999432,11.63276915199999983
3.03998947143554688,-39.97996796572539324,289.23170034135335982,31.48331314305889350,0.61833072262257138,-0.00193634282117123,0.00050986553976179,0.78591545860522327,0.01666666666666667,0.03333333333333333,-0.08555555555555555,1.37999999999999989,1.50000000000000000,10.65000000000000036,57.20000000000000284,92.09999999999999432,11.63276915199999983
3.05003929138183594,-40.90408539861749659,293.93500056309471802,31.33526547995026590,0.62049323877845008,-0.00159801368308889,0.00104073770337645,0.78420947701971211,0.05222222222222223,0.10111111111111111,-0.25444444444444442,0.00000000000000000,1.51000000000000001,8.90000000000000036,55.70000000000000284,99.59999999999999432,11.61300793600000070
3.06006026268005371,-41.97491662697191828,298.94281688053484913,31.29053713343610355,0.62234404106868102,-0.00180660829779063,0.00097070747719256,0.78274113756704766,0.05222222222222223,0.10111111111111111,-0.25444444444444442,0.00000000000000000,1.51000000000000001,8.90000000000000036,55.70000000000000284,99.59999999999999432,11.61300793600000070
3.06998872756958008,-43.08007801634490619,303.78889207836488140,31.45866147954674474,0.62463264401540386,-0.00167602296343598,0.00061388106013309,0.78091668833966899,0.05222222222222223,0.10111111111111111,-0.25444444444444442,0.00000000000000000,1.51000000000000001,8.90000000000000036,55.70000000000000284,99.59999999999999432,11.61300793600000070
3.08003807067871094,-43.98477047549960162,308.83437888325823906,31.35602622751242663,0.62720214698264320,-0.00239145962819493,0.00103774851124913,0.77885214952469461,-0.00333333333333333,-0.00000000000000000,-0.42333333333333334,3.93000000000000016,1.01000000000000001,10.58999999999999986,55.70000000000000284,100.00000000000000000,11.63276915199999983
3.09000372886657715,-45.02220206443272588,314.18086959385937007,31.25298808864468825,0.63011223975343089,-0.00255029564807173,0.00145182453651685,0.77649852125457219,-0.00333333333333333,-0.00000000000000000,-0.42333333333333334,3.93000000000000016,1.01000000000000001,10.58999999999999986,55.70000000000000284,100.00000000000000000,11.63276915199999983
3.09995937347412109,-46.10077324719603098,318.90484410225053580,31.43671140505869843,0.63252977766870211,-0.00228129416994111,0.00179514122098927,0.77453060205991175,-0.00333333333333333,-0.00000000000000000,-0.42333333333333334,3.93000000000000016,1.01000000000000001,10.58999999999999986,55.70000000000000284,100.00000000000000000,11.63276915199999983
3.10998177528381348,-47.23571127824279614,324.51824351056393425,31.48131822861828155,0.63527695568134390,-0.00152127463299448,0.00190135232025197,0.77228055793415429,-0.00333333333333333,-0.00000000000000000,-0.42333333333333334,3.93000000000000016,1.01000000000000001,10.58999999999999986,55.70000000000000284,100.00000000000000000,11.63276915199999983
3.12008166313171387,-48.06840066976741355,329.85388965843822007,31.26121866622954215,0.63832809698691095,-0.00186535381440749,0.00217399839506736,0.76975907580436753,-0.00333333333333333,-0.00000000000000000,-0.42333333333333334,3.93000000000000016,1.01000000000000001,10.58999999999999986,55.70000000000000284,100.00000000000000000,11.63276915199999983
3.13020014762878418,-48.90848823831103687,334.54890821793765099,31.21389511640499492,0.64074746061833354,-0.00212415599521673,0.00264817086614495,0.76774420666230314,0.02666666666666667,0.04000000000000000,-0.71555555555555550,-1.83000000000000007,1.67999999999999994,11.14000000000000057,55.29999999999999716,100.00000000000000000,11.65582390400000001
3.13999128341674805,-49.58077402521625032,339.99367648513953100,31.44598555696779840,0.64383701241721514,-0.00243516132187342,0.00211517630998777,0.76515586481460696,0.02666666666666667,0.04000000000000000,-0.71555555555555550,-1.83000000000000007,1.67999999999999994,11.14000000000000057,55.29999999999999716,100.00000000000000000,11.65582390400000001
3.15004491806030273,-50.38195742502707475,345.09056427338873618,31.14410398264149293,0.64651735362340434,-0.00217824695567728,0.00253379630078781,0.76289196258729597,0.02666666666666667,0.04000000000000000,-0.71555555555555550,-1.83000000000000007,1.67999999999999994,11.14000000000000057,55.29999999999999716,100.00000000000000000,11.65582390400000001
3.16004061698913574,-51.32605482830263099,350.67542451033085626,31.38789268695281365,0.64928119814286056,-0.00173087280747905,0.00255589316372431,0.76054217320779172,0.02666666666666667,0.04000000000000000,-0.71555555555555550,-1.83000000000000007,1.67999999999999994,11.14000000000000057,55.29999999999999716,100.00000000000000000,11.65582390400000001
3.17008829116821289,-52.26613875894256012,355.48771058309199589,31.60776908846648325,0.65170257934262676,-0.00144778738407982,0.00304261211853220,0.75846713475361194,0.02666666666666667,0.04000000000000000,-0.71555555555555550,-1.83000000000000007,1.67999999999999994,11.14000000000000057,55.29999999999999716,100.00000000000000000,11.65582390400000001
3.18005657196044922,-53.06103501200421846,360.84038647683223644,31.52409799892211240,0.65489973670218016,-0.00137956461762624,0.00393407466335637,0.75570427729729317,0.02666666666666667,0.04000000000000000,-0.71555555555555550,-1.83000000000000007,1.67999999999999994,11.14000000000000057,55.29999999999999716,100.00000000000000000,11.65582390400000001
3.19004464149475098,-53.59370263366571407,366.81105465602587401,31.57902951073880971,0.65826053225364012,-0.00073994317017743,0.00334875114264394,0.75278237892969058,-0.19111111111111112,0.00777777777777778,-0.77444444444444449,0.35999999999999999,1.38999999999999990,11.97000000000000064,54.89999999999999858,100.00000000000000000,11.65253036800000075
3.19999384880065918,-53.78640112587518018,372.01155853423529152,31.54679218470916524,0.66113858803233816,-0.00080539090543892,0.00259986114435616,0.75025886164851496,-0.19111111111111112,0.00777777777777778,-0.77444444444444449,0.35999999999999999,1.38999999999999990,11.97000000000000064,54.89999999999999858,100.00000000000000000,11.65253036800000075
3.20999288558959961,-53.97517269715879706,377.63633581114601157,31.55851856878588890,0.66439850996511041,-0.00119839704253912,0.00228389442887695,0.74737404800200791,-0.19111111111111112,0.00777777777777778,-0.77444444444444449,0.35999999999999999,1.38999999999999990,11.97000000000000064,54.89999999999999858,100.00000000000000000,11.65253036800000075
3.21998977661132812,-54.50198723216309560,382.50641422311923634,31.43249625357634613,0.66706645678442389,-0.00120898846929984,0.00264141163211283,0.74499255266381326,-0.19111111111111112,0.00777777777777778,-0.77444444444444449,0.35999999999999999,1.38999999999999990,11.97000000000000064,54.89999999999999858,100.00000000000000000,11.65253036800000075
3.22999477386474609,-55.11709679342130386,388.09071199928501983,31.37096434880711016,0.67017819924102984,-0.00108830509548931,0.00310158204124518,0.74219295135625751,0.04333333333333333,0.06444444444444444,-0.83666666666666667,0.93999999999999995,1.86000000000000010,10.81000000000000050,54.89999999999999858,100.00000000000000000,11.67229158399999989
3.23996758460998535,-55.42108519325395832,393.68182310558495374,31.39852931810326098,0.67320703287392247,-0.00097621664132522,0.00299867958303690,0.73944732456809736,0.04333333333333333,0.06444444444444444,-0.83666666666666667,0.93999999999999995,1.86000000000000010,10.81000000000000050,54.89999999999999858,100.00000000000000000,11.67229158399999989
3.24995470046997070,-55.72753714963666738,398.57560140290775053,31.28063932761098798,0.67613693597141489,-0.00157606662833174,0.00274645065637468,0.73676917473382508,0.04333333333333333,0.06444444444444444,-0.83666666666666667,0.93999999999999995,1.86000000000000010,10.81000000000000050,54.89999999999999858,100.00000000000000000,11.67229158399999989
3.25995111465454102,-56.19471173798604013,404.04052052270907325,31.26970771463146548,0.67936718194475454,-0.00175433264033983,0.00256907382712993,0.73379190120435445,0.04333333333333333,0.06444444444444444,-0.83666666666666667,0.93999999999999995,1.86000000000000010,10.81000000000000050,54.89999999999999858,100.00000000000000000,11.67229158399999989
3.26995658874511719,-56.53926493984391755,409.31102111752517203,31.20085332805018297,0.68224528822950370,-0.00220594702483882,0.00288167992638973,0.73111435248336298,0.04333333333333333,0.06444444444444444,-0.83666666666666667,0.93999999999999995,1.86000000000000010,10.81000000000000050,54.89999999999999858,100.00000000000000000,11.67229158399999989
3.27995109558105469,-56.65341499527661284,414.24667247944199744,31.11781453122506136,0.68506779592473177,-0.00210713166141864,0.00325718389054408,0.72846898749095290,0.04333333333333333,0.06444444444444444,-0.83666666666666667,0.93999999999999995,1.86000000000000010,10.81000000000000050,54.89999999999999858,100.00000000000000000,11.67229158399999989
3.29000592231750488,-56.72747610054400269,419.77194381107113941,31.00626746503367315,0.68825091186377396,-0.00211330406920605,0.00309008719010820,0.72546307116610176,0.05555555555555555,-0.03777777777777778,-0.83999999999999997,-0.67000000000000004,1.66999999999999993,8.33000000000000007,59.39999999999999858,100.00000000000000000,11.66570451199999958
3.30000424385070801,-57.06769719759506643,424.61765766592685623,31.17453109826016444,0.69093753499534305,-0.00189553818697812,0.00366941323452094,0.72290266639157941,0.05555555555555555,-0.03777777777777778,-0.83999999999999997,-0.67000000000000004,1.66999999999999993,8.33000000000000007,59.39999999999999858,100.00000000000000000,11.66570451199999958
3.31000542640686035,-57.20837383685395849,430.01722165476707005,31.10198954480280520,0.69394853576724913,-0.00208735517452403,0.00401644508492155,0.72001037549728819,0.05555555555555555,-0.03777777777777778,-0.83999999999999997,-0.67000000000000004,1.66999999999999993,8.33000000000000007,59.39999999999999858,100.00000000000000000,11.66570451199999958
3.31994175910949707,-57.47952142498369454,435.76409438419983644,31.15239778613839050,0.69648936660463678,-0.00193158638637062,0.00402565092844466,0.71755322124237331,0.05555555555555555,-0.03777777777777778,-0.83999999999999997,-0.67000000000000004,1.66999999999999993,8.33000000000000007,59.39999999999999858,100.00000000000000000,11.66570451199999958
3.32999730110168457,-57.40459469897047029,440.87137513852167103,31.39337256623797145,0.69892453320208581,-0.00196346109659573,0.00337381298874996,0.71518477269492109,0.03000000000000000,0.03777777777777778,-0.86333333333333329,-0.82999999999999996,1.57000000000000006,10.94999999999999929,68.00000000000000000,97.70000000000000284,11.66241097600000032
3.33993363380432129,-57.01894178860046480,446.66836494501626476,31.79192143092702239,0.70136244351440724,-0.00193955520597647,0.00279948157803207,0.71279669181050243,0.03000000000000000,0.03777777777777778,-0.86333333333333329,-0.82999999999999996,1.57000000000000006,10.94999999999999929,68.00000000000000000,97.70000000000000284,11.66241097600000032
3.34999799728393555,-56.62637471058161509,451.74555627529866797,31.96366333269790516,0.70377771300588765,-0.00243100084159604,0.00270964726336739,0.71041092244054016,0.03000000000000000,0.03777777777777778,-0.86333333333333329,-0.82999999999999996,1.57000000000000006,10.94999999999999929,68.00000000000000000,97.70000000000000284,11.66241097600000032
3.35996508598327637,-56.45082669919594309,457.40837893847634632,31.74608411785017026,0.70580210301120772,-0.00247760176989511,0.00326712975113309,0.70839718995604117,0.03000000000000000,0.03777777777777778,-0.86333333333333329,-0.82999999999999996,1.57000000000000006,10.94999999999999929,68.00000000000000000,97.70000000000000284,11.66241097600000032
3.36996126174926758,-56.87979277165501202,462.73566379406656779,31.66625820741444386,0.70744087959575819,-0.00155185172770643,0.00461637465848798,0.70675574473647373,0.03000000000000000,0.03777777777777778,-0.86333333333333329,-0.82999999999999996,1.57000000000000006,10.94999999999999929,68.00000000000000000,97.70000000000000284,11.66241097600000032
3.38003039360046387,-56.94292195228344866,468.64588181815480539,31.63164110724765976,0.70901932351762498,-0.00172802076565695,0.00455325353366827,0.70517223478034119,0.03000000000000000,0.03777777777777778,-0.86333333333333329,-0.82999999999999996,1.57000000000000006,10.94999999999999929,68.00000000000000000,97.70000000000000284,11.66241097600000032
3.38996005058288574,-56.96238255765710079,474.66995277909489914,31.56477521851224211,0.71078557621394312,-0.00229227325018206,0.00417109607814638,0.70339264432254767,0.03000000000000000,0.03777777777777778,-0.86333333333333329,-0.82999999999999996,1.57000000000000006,10.94999999999999929,68.00000000000000000,97.70000000000000284,11.66241097600000032
3.39997768402099609,-57.16879626483273569,480.04974961785632104,31.49000112093434822,0.71245588494434220,-0.00176061472347900,0.00498306944383423,0.70169700103597965,0.03000000000000000,0.03777777777777778,-0.86333333333333329,-0.82999999999999996,1.57000000000000006,10.94999999999999929,68.00000000000000000,97.70000000000000284,11.66241097600000032
3.40997910499572754,-57.11229157908508824,486.00763238795042298,31.57045170079314644,0.71418120650555939,-0.00122917192631723,0.00518125857348749,0.69994060317303630,0.04666666666666667,-0.07888888888888888,-0.73666666666666669,1.83000000000000007,1.73999999999999999,11.11999999999999922,82.90000000000000568,82.90000000000000568,11.64264976000000118
3.42002987861633301,-56.18373812067054729,491.42051843849259285,31.60443284295116584,0.71629611774733759,-0.00219515521746038,0.00421053781177169,0.69778028373192036,0.04666666666666667,-0.07888888888888888,-0.73666666666666669,1.83000000000000007,1.73999999999999999,11.11999999999999922,82.90000000000000568,82.90000000000000568,11.64264976000000118
3.43009996414184570,-56.02271117468954031,497.59066177418344523,31.48186308171419512,0.71802436564598793,-0.00116054939379028,0.00429067258710862,0.69600377412233294,0.04666666666666667,-0.07888888888888888,-0.73666666666666669,1.83000000000000007,1.73999999999999999,11.11999999999999922,82.90000000000000568,82.90000000000000568,11.64264976000000118
