t,x,y,z,q0,q1,q2,q3,wx,wy,wz,ax,ay,az,dutyR,dutyL,Vbatt
0.00000000000000000,3.34134325359551587,46.63266311547365461,32.53595066125955526,0.10438609749014452,-0.64908081232952131,0.60209034785033722,0.45308371714496731,0.00000000000000000,0.00000000000000000,0.00000000000000000,0.00000000000000000,0.00000000000000000,0.00000000000000000,0.00000000000000000,0.00000000000000000,0.00000000000000000
0.01011204719543457,3.34134325359551587,46.63266311547365461,32.53595066125955526,0.70523965841725855,-0.00479495455648092,0.00371337448051639,0.70894304669435682,0.00000000000000000,0.00000000000000000,0.00000000000000000,0.00000000000000000,0.00000000000000000,0.00000000000000000,0.00000000000000000,0.00000000000000000,0.00000000000000000
0.02005553245544434,3.31775035853273437,46.64970889406126275,32.52776043273710371,0.70524163120123939,-0.00459356693884629,0.00383054033385988,0.70894179431328808,0.00000000000000000,0.00000000000000000,0.00000000000000000,0.00000000000000000,0.00000000000000000,0.00000000000000000,0.00000000000000000,0.00000000000000000,0.00000000000000000
0.03008723258972168,3.44981664200200333,46.63433300866487485,32.53958620809519431,0.70532472511861488,-0.00475305738969867,0.00378869915204056,0.70885829778633191,0.00000000000000000,0.00000000000000000,0.00000000000000000,0.00000000000000000,0.00000000000000000,0.00000000000000000,0.00000000000000000,0.00000000000000000,0.00000000000000000
0.04007625579833984,3.38574580687909110,46.65061494616454496,32.52197822803466920,0.70528313694272338,-0.00479336924759994,0.00371298400098403,0.70889980540644537,0.00000000000000000,0.00000000000000000,0.00000000000000000,0.00000000000000000,0.00000000000000000,0.00000000000000000,0.00000000000000000,0.00000000000000000,0.00000000000000000
0.05009078979492188,3.27481075870919947,46.63539333861112368,32.53545052464416898,0.70528782298918913,-0.00459741026235105,0.00382408403408248,0.70889585056152637,0.00000000000000000,0.00000000000000000,0.00000000000000000,0.00000000000000000,0.00000000000000000,0.00000000000000000,0.00000000000000000,0.00000000000000000,0.00000000000000000
0.06007528305053711,3.37499294445284059,46.64498430012580599,32.55419739184713279,0.70531281444844840,-0.00475220828225495,0.00365291491789433,0.70887086729802440,0.00000000000000000,0.00000000000000000,0.00000000000000000,0.00000000000000000,0.00000000000000000,0.00000000000000000,0.00000000000000000,0.00000000000000000,0.00000000000000000
0.07005453109741211,3.33108484305272379,46.67144818534968209,32.55267345952892555,0.70525868449442797,-0.00460927441956811,0.00369745314319504,0.70892543428400712,0.00000000000000000,0.00000000000000000,0.00000000000000000,0.00000000000000000,0.00000000000000000,0.00000000000000000,0.00000000000000000,0.00000000000000000,0.00000000000000000
0.08011651039123535,3.31219555741822225,46.63410801653401450,32.51712450656491171,0.70525228957459263,-0.00469706538196182,0.00377842007892882,0.70893079293278005,0.00000000000000000,0.00000000000000000,0.00000000000000000,0.00000000000000000,0.00000000000000000,0.00000000000000000,0.00000000000000000,0.00000000000000000,0.00000000000000000
0.09007859230041504,3.31230377365484330,46.65522112121956155,32.51864432621638912,0.70518347887954480,-0.00466202212481148,0.00381853093256406,0.70899925633710470,0.00000000000000000,-0.00000000000000000,-0.00111111111111111,-0.20999999999999999,1.85000000000000009,9.64000000000000057,0.00000000000000000,0.00000000000000000,11.81391363200000022
0.10007357597351074,3.33585331941562302,46.63640888042877464,32.52530752288983962,0.70529806593995747,-0.00463358852118819,0.00379881944284864,0.70888555988227886,0.00000000000000000,-0.00000000000000000,-0.00111111111111111,-0.20999999999999999,1.85000000000000009,9.64000000000000057,0.00000000000000000,0.00000000000000000,11.81391363200000022
0.11008119583129883,3.32927484667044604,46.67637373957646929,32.52435298144818887,0.70526400862597494,-0.00463752437615108,0.00375988690269160,0.70891962503161143,0.00000000000000000,-0.00000000000000000,-0.00111111111111111,-0.20999999999999999,1.85000000000000009,9.64000000000000057,0.00000000000000000,0.00000000000000000,11.81391363200000022
0.12011218070983887,3.30256221328848776,46.68683498352825012,32.55391291528052733,0.70528839977149405,-0.00456255422322655,0.00366657724633704,0.70889633407009600,-0.28333333333333333,-0.00111111111111111,-0.00000000000000000,-0.20999999999999999,1.85000000000000009,9.63000000000000078,0.00000000000000000,0.00000000000000000,11.81391363200000022
0.13014316558837891,3.38049170171156410,46.64567470858042952,32.50583136437002452,0.70527655472823159,-0.00474542233856130,0.00374763027673461,0.70890649424646512,-0.28333333333333333,-0.00111111111111111,-0.00000000000000000,-0.20999999999999999,1.85000000000000009,9.63000000000000078,0.00000000000000000,0.00000000000000000,11.81391363200000022
0.14009237289428711,3.34906984365136173,46.65125752316780705,32.50409954288026171,0.70527841320501883,-0.00477604044874623,0.00367378229571907,0.70890482621314277,-0.28333333333333333,-0.00111111111111111,-0.00000000000000000,-0.20999999999999999,1.85000000000000009,9.63000000000000078,0.00000000000000000,0.00000000000000000,11.81391363200000022
0.15009474754333496,3.35693627213735146,46.62753927977090740,32.52599268091780260,0.70527091317731605,-0.00480300209531985,0.00375828284540180,0.70891166269639005,-0.28333333333333333,-0.00111111111111111,-0.00000000000000000,-0.20999999999999999,1.85000000000000009,9.63000000000000078,0.00000000000000000,0.00000000000000000,11.81391363200000022
0.16010117530822754,3.32737203587888430,46.66666519104732203,32.55001481499355975,0.70531623466925863,-0.00468063273362808,0.00362021177132200,0.70886810822318858,-0.28333333333333333,-0.00111111111111111,-0.00000000000000000,-0.20999999999999999,1.85000000000000009,9.63000000000000078,0.00000000000000000,0.00000000000000000,11.81391363200000022
0.17009687423706055,3.32341120735721640,46.66982727172626255,32.53479687711740809,0.70527900575662517,-0.00467960692887413,0.00366596645147378,0.70890492028756169,-0.28333333333333333,-0.00111111111111111,-0.00000000000000000,-0.20999999999999999,1.85000000000000009,9.63000000000000078,0.00000000000000000,0.00000000000000000,11.81391363200000022
0.18015241622924805,3.42623040848195837,46.65367125525643388,32.52844651488386063,0.70531639145357228,-0.00486203795766791,0.00360293452768540,0.70886681922389216,0.00000000000000000,-0.00000000000000000,-0.00000000000000000,-0.20000000000000001,1.85000000000000009,9.71000000000000085,0.00000000000000000,0.00000000000000000,11.79415241600000108
0.19010758399963379,3.38977955844763335,46.64302110494787001,32.55194786341963464,0.70527921042268560,-0.00485553156299588,0.00362652357610456,0.70890373640258519,0.00000000000000000,-0.00000000000000000,-0.00000000000000000,-0.20000000000000001,1.85000000000000009,9.71000000000000085,0.00000000000000000,0.00000000000000000,11.79415241600000108
0.20009016990661621,3.34173431372366636,46.62927267890753313,32.54893096585825418,0.70528413458841177,-0.00478752964793602,0.00369026789782182,0.70889897092645549,0.00000000000000000,-0.00000000000000000,-0.00000000000000000,-0.20000000000000001,1.85000000000000009,9.71000000000000085,0.00000000000000000,0.00000000000000000,11.79415241600000108
0.21007585525512695,3.36445988048451250,46.64310365437065542,32.53537121896287232,0.70534657679515889,-0.00476998714654063,0.00363223340145974,0.70883725967706446,0.00000000000000000,-0.00000000000000000,-0.00000000000000000,-0.20000000000000001,1.85000000000000009,9.71000000000000085,0.00000000000000000,0.00000000000000000,11.79415241600000108
0.22005963325500488,3.35277775092935082,46.67230993445118514,32.53237143391235975,0.70531521907885186,-0.00467931557625556,0.00360330511990033,0.70886921356037325,0.00000000000000000,-0.00000000000000000,-0.00000000000000000,-0.20000000000000001,1.85000000000000009,9.71000000000000085,0.00000000000000000,0.00000000000000000,11.79415241600000108
0.23012518882751465,3.36865520852401801,46.66289699613317765,32.52593282988563317,0.70533400570659777,-0.00477141972866575,0.00359443645202361,0.70884995166413767,0.00000000000000000,-0.00000000000000000,-0.00000000000000000,-0.20000000000000001,1.85000000000000009,9.71000000000000085,0.00000000000000000,0.00000000000000000,11.79415241600000108
0.24014306068420410,3.40713485899784763,46.62753248445352483,32.54643232979912426,0.70526017578701439,-0.00490101555737699,0.00362471171218524,0.70892236948792886,0.00000000000000000,-0.00000000000000000,-0.00000000000000000,-0.20000000000000001,1.85000000000000009,9.71000000000000085,0.00000000000000000,0.00000000000000000,11.79415241600000108
0.25014662742614746,3.30773603812323325,46.66109531200186922,32.54695201349468192,0.70531763348381271,-0.00464215959953596,0.00376647680308284,0.70886620733643291,0.00000000000000000,-0.00000000000000000,-0.00000000000000000,-0.20000000000000001,1.85000000000000009,9.71000000000000085,0.00000000000000000,0.00000000000000000,11.79415241600000108
0.26011490821838379,3.33872468200705796,46.64022603943256939,32.53275334470874469,0.70528894066814041,-0.00469373484268700,0.00376194367933227,0.70889443981751832,0.00000000000000000,-0.00555555555555556,-0.00000000000000000,-0.20000000000000001,1.85000000000000009,9.58999999999999986,0.00000000000000000,0.00000000000000000,11.80073948799999961
0.27009105682373047,3.31652902974935060,46.68262465694527208,32.54853499366429759,0.70530131121010375,-0.00454079318157392,0.00378576981637475,0.70888300131226756,0.00000000000000000,-0.00555555555555556,-0.00000000000000000,-0.20000000000000001,1.85000000000000009,9.58999999999999986,0.00000000000000000,0.00000000000000000,11.80073948799999961
0.28008985519409180,3.42278314737898848,46.63719830781543152,32.54238773002776952,0.70525868566891359,-0.00487725639641384,0.00366118468541319,0.70892382833792467,0.00000000000000000,-0.00555555555555556,-0.00000000000000000,-0.20000000000000001,1.85000000000000009,9.58999999999999986,0.00000000000000000,0.00000000000000000,11.80073948799999961
0.29009342193603516,3.38560584009738497,46.63147734940219635,32.51907600370343943,0.70527757186031426,-0.00489515657566495,0.00368143288746175,0.70890481104645786,0.00000000000000000,-0.00555555555555556,-0.00000000000000000,-0.20000000000000001,1.85000000000000009,9.58999999999999986,0.00000000000000000,0.00000000000000000,11.80073948799999961
0.30010461807250977,3.29664145361966865,46.67164675970631293,32.50921679902670292,0.70533012907362302,-0.00465798400699570,0.00368830745414960,0.70885408131300232,0.00000000000000000,-0.00555555555555556,-0.00000000000000000,-0.20000000000000001,1.85000000000000009,9.58999999999999986,0.00000000000000000,0.00000000000000000,11.80073948799999961
0.31009793281555176,3.32885314535577237,46.62933165356173504,32.56233200603387701,0.70524545691978913,-0.00468306911591337,0.00383967684787735,0.70893735353651477,-0.00111111111111111,-0.00333333333333333,-0.00222222222222222,-0.22000000000000000,1.85000000000000009,9.73000000000000043,0.00000000000000000,0.00000000000000000,11.81720716800000126
0.32008671760559082,3.30733856158030060,46.67709472661749714,32.53225600482046076,0.70527539436500519,-0.00459376028849517,0.00369578250147187,0.70890891986305282,-0.00111111111111111,-0.00000000000000000,-0.00111111111111111,-0.22000000000000000,1.85000000000000009,9.63000000000000078,0.00000000000000000,0.00000000000000000,11.79415241600000108
0.33011221885681152,3.36454580871093389,46.60943380233161548,32.49758028080633920,0.70526654453966375,-0.00478220341023475,0.00380987557228261,0.70891587408644574,-0.00111111111111111,-0.00000000000000000,-0.00111111111111111,-0.22000000000000000,1.85000000000000009,9.63000000000000078,0.00000000000000000,0.00000000000000000,11.79415241600000108
0.34007692337036133,3.34212025721009320,46.65656290718873578,32.53502580053228854,0.70529497431230570,-0.00468610401898884,0.00365536411052637,0.70888904488089444,-0.00111111111111111,-0.00000000000000000,-0.00111111111111111,-0.22000000000000000,1.85000000000000009,9.63000000000000078,0.00000000000000000,0.00000000000000000,11.79415241600000108
0.35009694099426270,3.25177295256315935,46.66645458386744849,32.52572856176688987,0.70528144095889123,-0.00459287481362618,0.00378326510220134,0.70890244846880224,-0.00111111111111111,-0.00000000000000000,-0.00111111111111111,-0.22000000000000000,1.85000000000000009,9.63000000000000078,0.00000000000000000,0.00000000000000000,11.79415241600000108
0.36009097099304199,3.33012269795764260,46.67218255132320337,32.55175041842560546,0.70526374623295751,-0.00462108345081863,0.00375683126820540,0.70892000963156421,-0.00111111111111111,-0.00000000000000000,-0.00111111111111111,-0.22000000000000000,1.85000000000000009,9.63000000000000078,0.00000000000000000,0.00000000000000000,11.79415241600000108
0.37009477615356445,3.33685769914999630,46.68892759629452627,32.57279044997731887,0.70525268147844355,-0.00469302949236014,0.00357833711156682,0.70893146794677209,-0.00111111111111111,-0.00000000000000000,-0.00111111111111111,-0.22000000000000000,1.85000000000000009,9.63000000000000078,0.00000000000000000,0.00000000000000000,11.79415241600000108
0.38008928298950195,3.31030048538082511,46.60759529029439818,32.58646800629747275,0.70521257544395421,-0.00468700285159108,0.00372343419479726,0.70897065628823541,0.00000000000000000,0.00222222222222222,0.00111111111111111,-0.19000000000000000,1.85000000000000009,9.59999999999999964,0.00000000000000000,0.00000000000000000,11.81720716800000126
0.39008951187133789,3.34945670892265701,46.64433964944754507,32.51721722058984199,0.70533411123665268,-0.00475757375008920,0.00361700775984557,0.70884982490854798,0.00000000000000000,0.00222222222222222,0.00111111111111111,-0.19000000000000000,1.85000000000000009,9.59999999999999964,0.00000000000000000,0.00000000000000000,11.81720716800000126
0.40012240409851074,3.35012819943119178,46.60843870528580624,32.55942024441512928,0.70520427451055678,-0.00478726413084676,0.00380872611754025,0.70897779014546147,0.00000000000000000,0.00222222222222222,0.00111111111111111,-0.19000000000000000,1.85000000000000009,9.59999999999999964,0.00000000000000000,0.00000000000000000,11.81720716800000126
0.41011810302734375,3.36505780771195750,46.65220391266647226,32.52643143311724572,0.70525876005014676,-0.00477944403951099,0.00370962833718391,0.70892416868435426,0.00000000000000000,0.00222222222222222,0.00111111111111111,-0.19000000000000000,1.85000000000000009,9.59999999999999964,0.00000000000000000,0.00000000000000000,11.81720716800000126
0.42009949684143066,3.20934116565620053,46.68269376437220330,32.53783945349375273,0.70520498019045352,-0.00450434087128870,0.00376547454052328,0.70897917319860859,0.00000000000000000,0.00222222222222222,0.00111111111111111,-0.19000000000000000,1.85000000000000009,9.59999999999999964,0.00000000000000000,0.00000000000000000,11.81720716800000126
0.43013477325439453,3.31586239598739008,46.65721312210780525,32.50691164139655598,0.70526028934053320,-0.00478495217805945,0.00361447666509243,0.70892310166223138,-0.00111111111111111,0.28444444444444444,-0.00111111111111111,-0.19000000000000000,1.86000000000000010,9.68999999999999950,0.00000000000000000,0.00000000000000000,11.81062009600000096
0.44008851051330566,3.33710217322265512,46.60116605195480588,32.47491427029165578,0.70520471236784477,-0.00488700019265803,0.00381553660464956,0.70897663753026496,-0.00111111111111111,0.28444444444444444,-0.00111111111111111,-0.19000000000000000,1.86000000000000010,9.68999999999999950,0.00000000000000000,0.00000000000000000,11.81062009600000096
0.45010137557983398,3.28167587449352283,46.64263840690301777,32.51819513241344595,0.70522360373324144,-0.00466842994483637,0.00382735625445426,0.70895925541842797,-0.00111111111111111,0.28444444444444444,-0.00111111111111111,-0.19000000000000000,1.86000000000000010,9.68999999999999950,0.00000000000000000,0.00000000000000000,11.81062009600000096
0.46009039878845215,3.35013987519354961,46.66832742494474218,32.56961615354855866,0.70525328637861917,-0.00472755219899391,0.00361332543901773,0.70893045934113630,-0.00111111111111111,0.28444444444444444,-0.00111111111111111,-0.19000000000000000,1.86000000000000010,9.68999999999999950,0.00000000000000000,0.00000000000000000,11.81062009600000096
0.47009205818176270,3.25825603679146170,46.67245089472080366,32.52756241647202984,0.70521327984386561,-0.00454012667447892,0.00381680149769161,0.70897041490316426,-0.00111111111111111,0.28444444444444444,-0.00111111111111111,-0.19000000000000000,1.86000000000000010,9.68999999999999950,0.00000000000000000,0.00000000000000000,11.81062009600000096
0.48008847236633301,3.33313011663874681,46.63452684438895091,32.51403860230298193,0.70524327307423462,-0.00478429339145766,0.00372159121680753,0.70893947984232075,0.00000000000000000,0.00111111111111111,0.28444444444444444,-0.22000000000000000,1.87000000000000011,9.60999999999999943,0.00000000000000000,0.00000000000000000,11.79415241600000108
0.49009466171264648,3.36348569124881669,46.66261122933769911,32.53572954608605983,0.70528466204018792,-0.00472965263497893,0.00368597445538616,0.70889885700932265,0.00000000000000000,0.00111111111111111,0.28444444444444444,-0.22000000000000000,1.87000000000000011,9.60999999999999943,0.00000000000000000,0.00000000000000000,11.79415241600000108
0.50009679794311523,3.32540867096149251,46.60904732455094290,32.52052182246770684,0.70521199332658635,-0.00478548258265273,0.00389719944300665,0.70896964354004277,0.00000000000000000,0.00111111111111111,0.28444444444444444,-0.22000000000000000,1.87000000000000011,9.60999999999999943,0.00000000000000000,0.00000000000000000,11.79415241600000108
0.51019573211669922,3.35905201735353520,46.63115696596961612,32.52338515336204239,0.70527347114553596,-0.00478312641725814,0.00376696502172537,0.70890920615726816,0.00000000000000000,0.00111111111111111,0.28444444444444444,-0.22000000000000000,1.87000000000000011,9.60999999999999943,0.00000000000000000,0.00000000000000000,11.79415241600000108
0.52009677886962891,3.31292393246897854,46.64129453322701835,32.50909351861801611,0.70521761788187276,-0.00475116191481515,0.00369814143063730,0.70896534586637971,0.00000000000000000,0.00111111111111111,0.28444444444444444,-0.22000000000000000,1.87000000000000011,9.60999999999999943,0.00000000000000000,0.00000000000000000,11.79415241600000108
0.53010964393615723,3.39266215213082356,46.60287642746559555,32.54932068011554946,0.70517321417276457,-0.00485503261314467,0.00369017613147802,0.70900884992480639,-0.00222222222222222,0.00333333333333333,-0.00333333333333333,-0.20000000000000001,1.85000000000000009,9.60999999999999943,0.00000000000000000,0.00000000000000000,11.80732655999999992
0.54007530212402344,3.35471673741592591,46.64217499818364132,32.52438774839215085,0.70524114522214587,-0.00478885658485814,0.00364381333250106,0.70894196981330093,-0.00222222222222222,0.00333333333333333,-0.00333333333333333,-0.20000000000000001,1.85000000000000009,9.60999999999999943,0.00000000000000000,0.00000000000000000,11.80732655999999992
0.55009531974792480,3.30889222104956460,46.62641658370376518,32.54796988348932985,0.70515002953337069,-0.00475224625763790,0.00380803247946336,0.70903198157292480,-0.00222222222222222,0.00333333333333333,-0.00333333333333333,-0.20000000000000001,1.85000000000000009,9.60999999999999943,0.00000000000000000,0.00000000000000000,11.80732655999999992
0.56009006500244141,3.28340230641900144,46.65661538384676987,32.54882175433147040,0.70530148887442801,-0.00463466355344672,0.00370634357996709,0.70888263676191754,-0.00222222222222222,0.00333333333333333,-0.00333333333333333,-0.20000000000000001,1.85000000000000009,9.60999999999999943,0.00000000000000000,0.00000000000000000,11.80732655999999992
0.57008957862854004,3.33269838811711816,46.66972693198162148,32.51077466596814247,0.70528744980058644,-0.00475284245342261,0.00361720833402305,0.70889628257331616,-0.00222222222222222,-0.00111111111111111,-0.00222222222222222,-0.20000000000000001,1.84000000000000008,9.58000000000000007,0.00000000000000000,0.00000000000000000,11.81062009600000096
0.58011722564697266,3.39328167039640993,46.64398198693248787,32.52556076741556268,0.70527270209927762,-0.00485789546614704,0.00365632322750744,0.70891004212500741,-0.00222222222222222,-0.00111111111111111,-0.00222222222222222,-0.20000000000000001,1.84000000000000008,9.58000000000000007,0.00000000000000000,0.00000000000000000,11.81062009600000096
0.59008932113647461,3.38030599411914423,46.65731920671809263,32.53122373207384044,0.70525895901942381,-0.00476972260590274,0.00368478756656449,0.70892416576788431,-0.00222222222222222,-0.00111111111111111,-0.00222222222222222,-0.20000000000000001,1.84000000000000008,9.58000000000000007,0.00000000000000000,0.00000000000000000,11.81062009600000096
0.60010099411010742,3.31725546032982299,46.66239676330582142,32.52097303553064478,0.70529749936476227,-0.00463017260771194,0.00376781142934852,0.70888631139870972,-0.00222222222222222,-0.00111111111111111,-0.00222222222222222,-0.20000000000000001,1.84000000000000008,9.58000000000000007,0.00000000000000000,0.00000000000000000,11.81062009600000096
0.61008930206298828,3.32881730544359433,46.66728128779979556,32.53486362224618489,0.70530444534906833,-0.00464764104358845,0.00373048567992963,0.70887948360787323,-0.00222222222222222,-0.00111111111111111,-0.00222222222222222,-0.20000000000000001,1.84000000000000008,9.58000000000000007,0.00000000000000000,0.00000000000000000,11.81062009600000096
0.62009072303771973,3.26254872318632172,46.68396465096729031,32.50333042809761963,0.70531047805131153,-0.00457796131987395,0.00368848736235708,0.70887415447465840,-0.00222222222222222,-0.00111111111111111,-0.00222222222222222,-0.20000000000000001,1.84000000000000008,9.58000000000000007,0.00000000000000000,0.00000000000000000,11.81062009600000096
0.63007330894470215,-2.65049342827472367,46.68396465096729031,32.50333042809761963,0.70465728210362710,-0.00675209045815694,0.00358599549935301,0.70950663470404018,0.00111111111111111,-0.00111111111111111,-0.00111111111111111,-0.19000000000000000,1.84000000000000008,9.64000000000000057,0.00000000000000000,0.00000000000000000,11.79744595200000035
0.64006137847900391,0.21027800254415988,57.20119535825546819,32.50333042809761963,0.70516684915658723,-0.00584042271388696,0.00399187093010431,0.70900611371099709,0.00111111111111111,-0.00111111111111111,-0.00111111111111111,-0.19000000000000000,1.84000000000000008,9.64000000000000057,0.00000000000000000,0.00000000000000000,11.79744595200000035
0.65011715888977051,3.13396791373065176,46.28246476431254308,32.50333042809761963,0.70542068731165519,-0.00538357873584859,0.00419534542898377,0.70875600178727172,0.00111111111111111,-0.00111111111111111,-0.00111111111111111,-0.19000000000000000,1.84000000000000008,9.64000000000000057,0.00000000000000000,0.00000000000000000,11.79744595200000035
0.66009092330932617,3.29159742757428830,46.34544030939611048,32.63101119638994163,0.70551555583372116,-0.00533673954060815,0.00399415062945626,0.70866308387587174,0.00111111111111111,-0.00111111111111111,-0.00111111111111111,-0.19000000000000000,1.84000000000000008,9.64000000000000057,0.00000000000000000,0.00000000000000000,11.79744595200000035
0.67008876800537109,3.22259752645244157,46.37038543291826187,32.59717918148322013,0.70548031762582508,-0.00520374172613026,0.00405593473624759,0.70869880196598878,0.00000000000000000,-0.00111111111111111,-0.00000000000000000,-0.20999999999999999,1.86000000000000010,9.63000000000000078,0.00000000000000000,0.00000000000000000,11.79415241600000108
0.68012881278991699,3.25898065130411174,46.35150583535974533,32.58748164719442286,0.70547877950417048,-0.00527683544808510,0.00404709345217945,0.70869984317167001,0.00000000000000000,-0.00111111111111111,-0.00000000000000000,-0.20999999999999999,1.86000000000000010,9.63000000000000078,0.00000000000000000,0.00000000000000000,11.79415241600000108
0.69008827209472656,3.29823068166251465,46.37220523837915920,32.60861418114822641,0.70547322700556481,-0.00529439648602063,0.00397995869723064,0.70870561961435807,0.00000000000000000,-0.00111111111111111,-0.00000000000000000,-0.20999999999999999,1.86000000000000010,9.63000000000000078,0.00000000000000000,0.00000000000000000,11.79415241600000108
0.70010495185852051,3.32507010466958519,46.34624256063168701,32.60156040180543613,0.70545915763870881,-0.00536439237949231,0.00412674874528931,0.70871825864928550,0.00000000000000000,-0.00111111111111111,-0.00000000000000000,-0.20999999999999999,1.86000000000000010,9.63000000000000078,0.00000000000000000,0.00000000000000000,11.79415241600000108
0.71009874343872070,3.32132508955782058,46.39461119000200284,32.61986571603610940,0.70549236320595932,-0.00521869076432693,0.00405985130635200,0.70868667853441936,0.00000000000000000,-0.00111111111111111,-0.00000000000000000,-0.20999999999999999,1.86000000000000010,9.63000000000000078,0.00000000000000000,0.00000000000000000,11.79415241600000108
0.72005486488342285,3.26166085029536257,46.39174348705273587,32.59595456685261183,0.70545254681405745,-0.00522907333791664,0.00402017720031135,0.70872646286198837,0.00000000000000000,-0.00111111111111111,-0.00000000000000000,-0.20999999999999999,1.86000000000000010,9.63000000000000078,0.00000000000000000,0.00000000000000000,11.79415241600000108
0.73007488250732422,3.26808434592177965,46.35036930533663480,32.58825583613747767,0.70542435654422153,-0.00520679346297841,0.00414258022460634,0.70875398095889930,0.00000000000000000,-0.00222222222222222,-0.00222222222222222,-0.20000000000000001,1.84000000000000008,9.67999999999999972,0.00000000000000000,0.00000000000000000,11.81720716800000126
0.74007534980773926,3.33320796481736314,46.38190927394325769,32.55729063180485383,0.70545088864675831,-0.00532972400495287,0.00403298522879146,0.70872729083877806,0.00000000000000000,-0.00222222222222222,-0.00222222222222222,-0.20000000000000001,1.84000000000000008,9.67999999999999972,0.00000000000000000,0.00000000000000000,11.81720716800000126
0.75007176399230957,3.27231944896560600,46.37064919373998606,32.58235588037857866,0.70542982668164445,-0.00523838985093810,0.00401173244363444,0.70874905636796126,0.00000000000000000,-0.00222222222222222,-0.00222222222222222,-0.20000000000000001,1.84000000000000008,9.67999999999999972,0.00000000000000000,0.00000000000000000,11.81720716800000126
0.76009559631347656,3.36221799375173447,46.38604438017932097,32.59791923331835761,0.70539556148708882,-0.00532871317323303,0.00402551482580879,0.70878240799318637,0.00000000000000000,-0.00222222222222222,-0.00222222222222222,-0.20000000000000001,1.84000000000000008,9.67999999999999972,0.00000000000000000,0.00000000000000000,11.81720716800000126
0.77008938789367676,3.23303812762018206,46.44919767214491202,32.59038328884359004,0.70545605947060142,-0.00498694947972130,0.00401799645605123,0.70872472384951901,0.00000000000000000,-0.00111111111111111,0.00222222222222222,-0.19000000000000000,1.83000000000000007,9.58000000000000007,0.00000000000000000,0.00000000000000000,11.81062009600000096
0.78005981445312500,3.29884583686912336,46.41239381485928561,32.56834729003062989,0.70551951694131287,-0.00514510212759465,0.00392937536816317,0.70866091972692369,0.00000000000000000,-0.00111111111111111,0.00222222222222222,-0.19000000000000000,1.83000000000000007,9.58000000000000007,0.00000000000000000,0.00000000000000000,11.81062009600000096
0.79009771347045898,3.36886735568955809,46.42157718846860348,32.56474224021707187,0.70541767910399444,-0.00526761298953403,0.00391775616984364,0.70876145595504803,0.00000000000000000,-0.00111111111111111,0.00222222222222222,-0.19000000000000000,1.83000000000000007,9.58000000000000007,0.00000000000000000,0.00000000000000000,11.81062009600000096
0.80011510848999023,3.27029005939148254,46.43974451335393638,32.58428801750491743,0.70543242850933796,-0.00498556700803752,0.00402172876499984,0.70874823359692896,0.00000000000000000,-0.00111111111111111,0.00222222222222222,-0.19000000000000000,1.83000000000000007,9.58000000000000007,0.00000000000000000,0.00000000000000000,11.81062009600000096
0.81010246276855469,3.35187999376969259,46.43147294634388800,32.62964187717484066,0.70541651242087133,-0.00514996334898048,0.00396784936560005,0.70876320308893759,0.00000000000000000,-0.00111111111111111,0.00222222222222222,-0.19000000000000000,1.83000000000000007,9.58000000000000007,0.00000000000000000,0.00000000000000000,11.81062009600000096
0.82008790969848633,3.31783716392528305,46.48217034189738683,32.57347772154283660,0.70543534332173885,-0.00501296937721767,0.00392173341738128,0.70874569948435417,0.00000000000000000,-0.00111111111111111,0.00222222222222222,-0.19000000000000000,1.83000000000000007,9.58000000000000007,0.00000000000000000,0.00000000000000000,11.81062009600000096
0.83009624481201172,3.39594928760003834,46.44679257728490285,32.59286536546895974,0.70541749055215563,-0.00520405118129374,0.00389066304379760,0.70876226240925200,-0.00222222222222222,-0.00111111111111111,-0.00111111111111111,-0.19000000000000000,1.86000000000000010,9.71000000000000085,0.00000000000000000,0.00000000000000000,11.81720716800000126
0.84007501602172852,3.32995104123189245,46.48995425812194071,32.54190717375959707,0.70549801140977764,-0.00502835274725131,0.00389733215591487,0.70868334421486490,-0.00222222222222222,-0.00111111111111111,-0.00111111111111111,-0.19000000000000000,1.86000000000000010,9.71000000000000085,0.00000000000000000,0.00000000000000000,11.81720716800000126
0.85010027885437012,3.28536877601821331,46.46849988812954280,32.54809090107307412,0.70540643892415189,-0.00505975108306965,0.00395884109683152,0.70877392899322600,-0.00222222222222222,-0.00111111111111111,-0.00111111111111111,-0.19000000000000000,1.86000000000000010,9.71000000000000085,0.00000000000000000,0.00000000000000000,11.81720716800000126
0.86019945144653320,3.31952113853029607,46.51553997873895696,32.55258740721019706,0.70534480726306048,-0.00498630498977662,0.00385915763654619,0.70883633268330803,-0.00222222222222222,-0.00111111111111111,-0.00111111111111111,-0.19000000000000000,1.86000000000000010,9.71000000000000085,0.00000000000000000,0.00000000000000000,11.81720716800000126
0.87009596824645996,3.25066907669456029,46.52917774454618183,32.54892366742001997,0.70537833653288040,-0.00483656803201320,0.00397788291585486,0.70880334819136248,-0.00222222222222222,-0.00000000000000000,-0.00222222222222222,-0.20000000000000001,1.85000000000000009,9.61999999999999922,0.00000000000000000,0.00000000000000000,11.79085888000000004
0.88011193275451660,3.30969392352300096,46.48555838822295527,32.57296175994610365,0.70536338956900602,-0.00506190774952782,0.00402158725250498,0.70881640259070500,-0.00222222222222222,-0.00000000000000000,-0.00222222222222222,-0.20000000000000001,1.85000000000000009,9.61999999999999922,0.00000000000000000,0.00000000000000000,11.79085888000000004
0.89008998870849609,3.34138515631130639,46.49832093282645928,32.55105473301300378,0.70539563342779998,-0.00504238771945019,0.00391741441572769,0.70878503689861783,-0.00222222222222222,-0.00000000000000000,-0.00222222222222222,-0.20000000000000001,1.85000000000000009,9.61999999999999922,0.00000000000000000,0.00000000000000000,11.79085888000000004
0.90010499954223633,3.26187191579920954,46.49730241189586621,32.52138891023860623,0.70536548223580398,-0.00490202599921745,0.00409301647791846,0.70881503498971155,-0.00222222222222222,-0.00000000000000000,-0.00222222222222222,-0.20000000000000001,1.85000000000000009,9.61999999999999922,0.00000000000000000,0.00000000000000000,11.79085888000000004
0.91009235382080078,3.33418718779161205,46.50891925263874782,32.59443030108567996,0.70529823218387555,-0.00500090279244678,0.00398488665986361,0.70888187685105053,-0.00222222222222222,-0.00000000000000000,-0.00222222222222222,-0.20000000000000001,1.85000000000000009,9.61999999999999922,0.00000000000000000,0.00000000000000000,11.79085888000000004
0.92009305953979492,3.24246435671475774,46.52148916091646669,32.55655887337699284,0.70532496972898229,-0.00478090346510170,0.00403808698873666,0.70885649033661213,-0.00222222222222222,-0.00000000000000000,-0.00222222222222222,-0.20000000000000001,1.85000000000000009,9.61999999999999922,0.00000000000000000,0.00000000000000000,11.79085888000000004
0.93008899688720703,3.33531889390181258,46.50009297487329007,32.49760022735964782,0.70539846467880829,-0.00497875604141766,0.00401460491330665,0.70878212517278560,-0.00333333333333333,-0.00000000000000000,-0.00222222222222222,-0.20999999999999999,1.83000000000000007,9.71000000000000085,0.00000000000000000,0.00000000000000000,11.80403302400000065
0.94005298614501953,3.36257422359660785,46.50611838219951011,32.56226401789785285,0.70530345115383342,-0.00502152112086753,0.00391396014876348,0.70887693362958215,-0.00333333333333333,-0.00000000000000000,-0.00222222222222222,-0.20999999999999999,1.83000000000000007,9.71000000000000085,0.00000000000000000,0.00000000000000000,11.80403302400000065
0.95009255409240723,3.22540158969102242,46.52145758610779325,32.51633910303457498,0.70533452251128759,-0.00483446748794528,0.00402036422276940,0.70884672246501801,-0.00333333333333333,-0.00000000000000000,-0.00222222222222222,-0.20999999999999999,1.83000000000000007,9.71000000000000085,0.00000000000000000,0.00000000000000000,11.80403302400000065
0.96011185646057129,3.29231947091291133,46.50905259460170527,32.52545679433227832,0.70537535732094636,-0.00493824172839384,0.00400641367365430,0.70880545123641281,-0.00333333333333333,-0.00000000000000000,-0.00222222222222222,-0.20999999999999999,1.83000000000000007,9.71000000000000085,0.00000000000000000,0.00000000000000000,11.80403302400000065
0.97009229660034180,3.28211361905925125,46.53934955015219543,32.52739059600700244,0.70532638485762011,-0.00482325897606123,0.00396338852712861,0.70885521691521269,-0.00111111111111111,-0.00000000000000000,0.00111111111111111,-0.20000000000000001,1.87000000000000011,9.64000000000000057,0.00000000000000000,0.00000000000000000,11.81062009600000096
0.98009419441223145,3.35144227025498287,46.52284907038561101,32.54044587428580115,0.70531364141063579,-0.00496894916609538,0.00392781908641510,0.70886708840337520,-0.00111111111111111,-0.00000000000000000,0.00111111111111111,-0.20000000000000001,1.87000000000000011,9.64000000000000057,0.00000000000000000,0.00000000000000000,11.81062009600000096
0.99008703231811523,3.33812562331870177,46.49280300194619286,32.53897235397567300,0.70532495437637555,-0.00497520815709132,0.00400236808092839,0.70885537106486107,-0.00111111111111111,-0.00000000000000000,0.00111111111111111,-0.20000000000000001,1.87000000000000011,9.64000000000000057,0.00000000000000000,0.00000000000000000,11.81062009600000096
1.00008773803710938,3.23590939001150568,46.51450442276510699,32.52105860882691246,0.70536743327318052,-0.00480354478904570,0.00406656041473634,0.70881391995463650,-0.00111111111111111,-0.00000000000000000,0.00111111111111111,-0.20000000000000001,1.87000000000000011,9.64000000000000057,0.00000000000000000,0.00000000000000000,11.81062009600000096
1.01010632514953613,3.25492151708827171,46.53831676656773197,32.51777524334375613,0.70535811891214273,-0.00475840641981618,0.00403123091053211,0.70882369516715060,-0.00111111111111111,-0.00000000000000000,0.00111111111111111,-0.20000000000000001,1.87000000000000011,9.64000000000000057,0.00000000000000000,0.00000000000000000,11.81062009600000096
1.02008676528930664,3.30809578145990457,46.56504600877482147,32.49018722156188943,0.70533470665649911,-0.00485760815496526,0.00398249943648008,0.70884659477706558,0.00111111111111111,-0.00111111111111111,0.00111111111111111,-0.20000000000000001,1.85000000000000009,9.60999999999999943,0.00000000000000000,0.00000000000000000,11.81720716800000126
1.03011965751647949,3.33518190704233675,46.53917283323377774,32.52832311187114556,0.70531210417349999,-0.00491526152207466,0.00389412815234767,0.70886917811148531,0.00111111111111111,-0.00111111111111111,0.00111111111111111,-0.20000000000000001,1.85000000000000009,9.60999999999999943,0.00000000000000000,0.00000000000000000,11.81720716800000126
1.04005408287048340,3.34040236950205838,46.57638189110798521,32.52902531872864245,0.70535645368952749,-0.00486198975482667,0.00385458954662526,0.70882563189657888,0.00111111111111111,-0.00111111111111111,0.00111111111111111,-0.20000000000000001,1.85000000000000009,9.60999999999999943,0.00000000000000000,0.00000000000000000,11.81720716800000126
1.05009841918945312,3.28795424546954740,46.54657083374801374,32.51110765515518608,0.70532431301432019,-0.00478851208962781,0.00406952213211274,0.70885691265054429,0.00111111111111111,-0.00111111111111111,0.00111111111111111,-0.20000000000000001,1.85000000000000009,9.60999999999999943,0.00000000000000000,0.00000000000000000,11.81720716800000126
1.06010770797729492,3.31700923327684771,46.56501253489360437,32.54236154318730456,0.70535111586659172,-0.00480615385625587,0.00394604788405845,0.70883082109693873,0.00111111111111111,-0.00111111111111111,0.00111111111111111,-0.20000000000000001,1.85000000000000009,9.60999999999999943,0.00000000000000000,0.00000000000000000,11.81720716800000126
1.07009530067443848,3.28481121936106391,46.60933336717696562,32.51297250145525908,0.70534439119156389,-0.00467496455491960,0.00393128450454897,0.70883847209583428,0.00000000000000000,0.00111111111111111,-0.00111111111111111,-0.22000000000000000,1.84000000000000008,9.58000000000000007,0.00000000000000000,0.00000000000000000,11.81062009600000096
1.08009696006774902,3.32137515617261769,46.58264431624463242,32.51495798589600383,0.70536583689418630,-0.00481348762977021,0.00382869338084565,0.70881676587563680,0.00000000000000000,0.00111111111111111,-0.00111111111111111,-0.22000000000000000,1.84000000000000008,9.58000000000000007,0.00000000000000000,0.00000000000000000,11.81062009600000096
1.09009790420532227,3.38301074298642979,46.58265766161597554,32.54798763605841572,0.70528283326648000,-0.00483602716654104,0.00383809182228276,0.70889915149618743,0.00000000000000000,0.00111111111111111,-0.00111111111111111,-0.22000000000000000,1.84000000000000008,9.58000000000000007,0.00000000000000000,0.00000000000000000,11.81062009600000096
1.10009074211120605,3.30953217209481787,46.53835295676122996,32.53614002846402542,0.70524852493535584,-0.00480105217778296,0.00402691485290475,0.70893247346362898,0.00000000000000000,0.00111111111111111,-0.00111111111111111,-0.22000000000000000,1.84000000000000008,9.58000000000000007,0.00000000000000000,0.00000000000000000,11.81062009600000096
1.11008763313293457,3.33253792529934145,46.56979817244831565,32.53290049034865916,0.70528392268669138,-0.00483978226711030,0.00390453827099049,0.70889767913865442,0.00000000000000000,0.00111111111111111,-0.00111111111111111,-0.22000000000000000,1.84000000000000008,9.58000000000000007,0.00000000000000000,0.00000000000000000,11.81062009600000096
1.12009048461914062,3.31912860901398687,46.62838679947137877,32.51574331554532904,0.70534276820292896,-0.00465491221229875,0.00387009353224108,0.70884055577554006,0.00111111111111111,0.00222222222222222,0.00111111111111111,-0.20999999999999999,1.84000000000000008,9.58999999999999986,0.00000000000000000,0.00000000000000000,11.79744595200000035
1.13008189201354980,3.41221334068450100,46.60789848420476034,32.51191545442009811,0.70537452213348317,-0.00491925381123859,0.00370728887056103,0.70880804205097103,0.00111111111111111,0.00222222222222222,0.00111111111111111,-0.20999999999999999,1.84000000000000008,9.58999999999999986,0.00000000000000000,0.00000000000000000,11.79744595200000035
1.14011788368225098,3.38586284749929911,46.56782617966803173,32.53117767468081922,0.70528144985108199,-0.00489794626311192,0.00383097300332856,0.70890014124995593,0.00111111111111111,0.00222222222222222,0.00111111111111111,-0.20999999999999999,1.84000000000000008,9.58999999999999986,0.00000000000000000,0.00000000000000000,11.79744595200000035
1.15008068084716797,3.38175491940996542,46.55538303899015773,32.52373847920516425,0.70534482690726863,-0.00487771400336741,0.00390827176719156,0.70883679960414769,0.00111111111111111,0.00222222222222222,0.00111111111111111,-0.20999999999999999,1.84000000000000008,9.58999999999999986,0.00000000000000000,0.00000000000000000,11.79744595200000035
1.16009116172790527,3.38210545181816480,46.59883199608086812,32.54107956946381108,0.70536121951646380,-0.00480136294395122,0.00383852256048612,0.70882138981599596,0.00111111111111111,0.00222222222222222,0.00111111111111111,-0.20999999999999999,1.84000000000000008,9.58999999999999986,0.00000000000000000,0.00000000000000000,11.79744595200000035
1.17008709907531738,3.28635076912265944,46.62555428109087785,32.47878850580766397,0.70529924850682357,-0.00470114633772269,0.00388030443486742,0.70888349713920840,0.00111111111111111,0.00222222222222222,0.00111111111111111,-0.20999999999999999,1.84000000000000008,9.58999999999999986,0.00000000000000000,0.00000000000000000,11.79744595200000035
1.18011665344238281,3.33740878757664206,46.60004419686149646,32.49191592888920610,0.70530668031545418,-0.00477149651548223,0.00388064980208417,0.70887563089762795,-0.00111111111111111,0.00111111111111111,0.00111111111111111,-0.20999999999999999,1.85000000000000009,9.64000000000000057,0.00000000000000000,0.00000000000000000,11.82050070400000052
1.19020915031433105,3.33670592380151598,46.61240895418595187,32.50635159885710124,0.70530746424325219,-0.00478563927104309,0.00383626415465851,0.70887499717288427,-0.00111111111111111,0.00111111111111111,0.00111111111111111,-0.20999999999999999,1.85000000000000009,9.64000000000000057,0.00000000000000000,0.00000000000000000,11.82050070400000052
1.20019268989562988,3.29715324276847843,46.60722457340160219,32.48897477546076118,0.70532919715427989,-0.00472387808282083,0.00402018255721711,0.70885276803421193,-0.00111111111111111,0.00111111111111111,0.00111111111111111,-0.20999999999999999,1.85000000000000009,9.64000000000000057,0.00000000000000000,0.00000000000000000,11.82050070400000052
1.21008801460266113,3.36864763207942985,46.62328105425581981,32.51760044470898947,0.70533252686810599,-0.00472344387648663,0.00386167161035860,0.70885033900829308,-0.00111111111111111,0.00111111111111111,0.00111111111111111,-0.20999999999999999,1.85000000000000009,9.64000000000000057,0.00000000000000000,0.00000000000000000,11.82050070400000052
1.22007656097412109,3.33545623284447501,46.64662171422694570,32.52128650945797261,0.70530146824363960,-0.00461730623621304,0.00382320040709663,0.70888214994816623,-0.00111111111111111,-0.00111111111111111,-0.00000000000000000,-0.20000000000000001,1.86000000000000010,9.59999999999999964,0.00000000000000000,0.00000000000000000,11.81391363200000022
1.23008537292480469,3.37633836007622756,46.62231696544043302,32.49302191786910043,0.70533450022438549,-0.00479921358418924,0.00374180924893072,0.70884850934860166,-0.00111111111111111,-0.00111111111111111,-0.00000000000000000,-0.20000000000000001,1.86000000000000010,9.59999999999999964,0.00000000000000000,0.00000000000000000,11.81391363200000022
1.24007892608642578,3.37937977037534631,46.63159072350746470,32.49715000467827508,0.70533289940856780,-0.00476960444845868,0.00376109131856225,0.70885020002635402,-0.00111111111111111,-0.00111111111111111,-0.00000000000000000,-0.20000000000000001,1.86000000000000010,9.59999999999999964,0.00000000000000000,0.00000000000000000,11.81391363200000022
1.25008106231689453,3.28919644876612205,46.61173450113825112,32.52140088423001885,0.70525256432617178,-0.00470316502252774,0.00392410656485095,0.70892968772495113,-0.00111111111111111,-0.00111111111111111,-0.00000000000000000,-0.20000000000000001,1.86000000000000010,9.59999999999999964,0.00000000000000000,0.00000000000000000,11.81391363200000022
1.26009798049926758,3.29527399297321599,46.62184226879369220,32.54987456157358139,0.70529765207327411,-0.00455538566782268,0.00396502215963487,0.70888556836813765,-0.00111111111111111,-0.00111111111111111,-0.00000000000000000,-0.20000000000000001,1.86000000000000010,9.59999999999999964,0.00000000000000000,0.00000000000000000,11.81391363200000022
1.27012944221496582,3.31338016361806709,46.64526424105505242,32.54354251204908621,0.70532494086546060,-0.00458264848725623,0.00385945378587863,0.70885882356252827,-0.28444444444444444,-0.00222222222222222,-0.00000000000000000,-0.22000000000000000,1.83000000000000007,9.56000000000000050,0.00000000000000000,0.00000000000000000,11.82050070400000052
1.28026509284973145,3.33207223731061797,46.62584586387244912,32.47957833752548140,0.70532914815253045,-0.00475922037205763,0.00374115911979742,0.70885410792088699,-0.28444444444444444,-0.00222222222222222,-0.00000000000000000,-0.22000000000000000,1.83000000000000007,9.56000000000000050,0.00000000000000000,0.00000000000000000,11.82050070400000052
1.29015135765075684,3.36162723608733804,46.62306106453259957,32.54141514073283048,0.70525173002457608,-0.00478257401560354,0.00373188740097720,0.70893102435960165,-0.28444444444444444,-0.00222222222222222,-0.00000000000000000,-0.22000000000000000,1.83000000000000007,9.56000000000000050,0.00000000000000000,0.00000000000000000,11.82050070400000052
1.30020833015441895,3.46384379014139077,46.64333044294988895,32.49244160746093257,0.70533940316693200,-0.00495087114848841,0.00357009538307307,0.70884347329572228,-0.28444444444444444,-0.00222222222222222,-0.00000000000000000,-0.22000000000000000,1.83000000000000007,9.56000000000000050,0.00000000000000000,0.00000000000000000,11.82050070400000052
1.31013751029968262,3.38634751299969716,46.63280534372509578,32.57315339319146830,0.70524515662120268,-0.00483734153853874,0.00365742405005948,0.70893758007210539,-0.28444444444444444,-0.00222222222222222,-0.00000000000000000,-0.22000000000000000,1.83000000000000007,9.56000000000000050,0.00000000000000000,0.00000000000000000,11.82050070400000052
1.32028508186340332,3.32334401112026612,46.68474447849599329,32.48780148388146216,0.70524828392658956,-0.00468440315330128,0.00365197284749001,0.70893552420514150,-0.28444444444444444,-0.00222222222222222,-0.00000000000000000,-0.22000000000000000,1.83000000000000007,9.56000000000000050,0.00000000000000000,0.00000000000000000,11.82050070400000052
1.33015346527099609,3.39724352333582980,46.63747022654404617,32.54431427432830048,0.70527773539426630,-0.00482261977991589,0.00373005711801560,0.70890489134261903,-0.00111111111111111,-0.00111111111111111,0.00111111111111111,-0.19000000000000000,1.85000000000000009,9.65000000000000036,0.00000000000000000,0.00000000000000000,11.81391363200000022
1.34022021293640137,3.35832712374272413,46.64069458847861682,32.52602978003508127,0.70531294280387546,-0.00471219428477965,0.00377312795263425,0.70887037703928113,-0.00111111111111111,-0.00111111111111111,0.00111111111111111,-0.19000000000000000,1.85000000000000009,9.65000000000000036,0.00000000000000000,0.00000000000000000,11.81391363200000022
1.35019993782043457,3.34195502278064538,46.62393615641193634,32.50179301725936654,0.70530577411315842,-0.00476322885223565,0.00381972748658674,0.70887691903141270,-0.00111111111111111,-0.00111111111111111,0.00111111111111111,-0.19000000000000000,1.85000000000000009,9.65000000000000036,0.00000000000000000,0.00000000000000000,11.81391363200000022
1.36015987396240234,3.37370113580371855,46.61376454709985495,32.53386903746766023,0.70525971259089526,-0.00481165966245724,0.00379455868542433,0.70892255363465706,-0.00111111111111111,-0.00111111111111111,0.00111111111111111,-0.19000000000000000,1.85000000000000009,9.65000000000000036,0.00000000000000000,0.00000000000000000,11.81391363200000022
1.37021303176879883,3.30242839649151065,46.65387491631778261,32.47267010835107470,0.70524848537593232,-0.00464141530770646,0.00386129120900531,0.70893449737552894,-0.00111111111111111,-0.00111111111111111,0.00111111111111111,-0.19000000000000000,1.85000000000000009,9.65000000000000036,0.00000000000000000,0.00000000000000000,11.81391363200000022
1.38019585609436035,3.35586603223347657,46.63621981149956497,32.51311897487889979,0.70521166671632507,-0.00479881084836067,0.00374511973430431,0.70897069799802059,0.00000000000000000,-0.00000000000000000,-0.00000000000000000,-0.19000000000000000,1.85000000000000009,9.60999999999999943,0.00000000000000000,0.00000000000000000,11.81062009600000096
1.39020013809204102,3.34062775154975000,46.62118198087864585,32.50582269072851460,0.70523842030634620,-0.00485362823890014,0.00374529921211268,0.70894371112983290,0.00000000000000000,-0.00000000000000000,-0.00000000000000000,-0.19000000000000000,1.85000000000000009,9.60999999999999943,0.00000000000000000,0.00000000000000000,11.81062009600000096
1.40004348754882812,3.27227238140173915,46.62076551055518081,32.48369320740103916,0.70529414947295388,-0.00473712547742185,0.00381080057346915,0.70888870788045666,0.00000000000000000,-0.00000000000000000,-0.00000000000000000,-0.19000000000000000,1.85000000000000009,9.60999999999999943,0.00000000000000000,0.00000000000000000,11.81062009600000096
1.41008329391479492,3.37935823739711205,46.64792624850232272,32.56241507417760772,0.70528960771375326,-0.00473205674567484,0.00375238932366264,0.70889357202918657,0.00000000000000000,-0.00000000000000000,-0.00000000000000000,-0.19000000000000000,1.85000000000000009,9.60999999999999943,0.00000000000000000,0.00000000000000000,11.81062009600000096
1.42006587982177734,3.26481262092091251,46.66351175838784826,32.51530996495694126,0.70527760044385290,-0.00459323837107082,0.00378496026583749,0.70890625794191853,-0.00111111111111111,0.00222222222222222,-0.00000000000000000,-0.20999999999999999,1.86000000000000010,9.58999999999999986,0.00000000000000000,0.00000000000000000,11.79415241600000108
1.43007397651672363,3.34469276177890151,46.63680219919785230,32.49959857542633301,0.70530074158726852,-0.00474008681127281,0.00379202762034924,0.70888223000721173,-0.00111111111111111,0.00222222222222222,-0.00000000000000000,-0.20999999999999999,1.86000000000000010,9.58999999999999986,0.00000000000000000,0.00000000000000000,11.79415241600000108
1.44008731842041016,3.38163202575646915,46.61271397946951112,32.54079561488450878,0.70525692007125351,-0.00483402823802461,0.00372268790872513,0.70892556058964129,-0.00111111111111111,0.00222222222222222,-0.00000000000000000,-0.20999999999999999,1.86000000000000010,9.58999999999999986,0.00000000000000000,0.00000000000000000,11.79415241600000108
1.45012927055358887,3.33755330086390245,46.61155783945870468,32.48338705909520030,0.70524070643091319,-0.00480068296354190,0.00389304597901511,0.70894100151487582,-0.00111111111111111,0.00222222222222222,-0.00000000000000000,-0.20999999999999999,1.86000000000000010,9.58999999999999986,0.00000000000000000,0.00000000000000000,11.79415241600000108
1.46020388603210449,3.37655113868490986,46.67161988774203252,32.56164847952452135,0.70530711609778374,-0.00475133924497652,0.00374546469645825,0.70887605986618996,-0.00111111111111111,0.00222222222222222,-0.00000000000000000,-0.20999999999999999,1.86000000000000010,9.58999999999999986,0.00000000000000000,0.00000000000000000,11.79415241600000108
1.47027420997619629,3.29336428106746482,46.66183844709525630,32.49486592818998787,0.70525920705310441,-0.00462961168890177,0.00383200593320824,0.70892406736755931,-0.00111111111111111,0.00222222222222222,-0.00000000000000000,-0.20999999999999999,1.86000000000000010,9.58999999999999986,0.00000000000000000,0.00000000000000000,11.79415241600000108
1.48020625114440918,3.38214703097322777,46.63675211303745982,32.51474493257205012,0.70525824436406093,-0.00478117827456016,0.00379491330611509,0.70892421860437838,-0.00222222222222222,-0.00000000000000000,0.28333333333333333,-0.20000000000000001,1.86000000000000010,9.71000000000000085,0.00000000000000000,0.00000000000000000,11.78756534400000078
1.49020051956176758,3.35850967509560405,46.61487788021787537,32.47587948075712916,0.70524643512159568,-0.00484289964433753,0.00379934301261606,0.70893552391172288,-0.00222222222222222,-0.00000000000000000,0.28333333333333333,-0.20000000000000001,1.86000000000000010,9.71000000000000085,0.00000000000000000,0.00000000000000000,11.78756534400000078
1.50018262863159180,3.29524078993321146,46.59920612979635735,32.49517631005558371,0.70531280022420317,-0.00461005264590463,0.00397980387341168,0.70887006031826816,-0.00222222222222222,-0.00000000000000000,0.28333333333333333,-0.20000000000000001,1.86000000000000010,9.71000000000000085,0.00000000000000000,0.00000000000000000,11.78756534400000078
1.51016044616699219,3.32391997129630568,46.64242842666391198,32.49287738698289729,0.70532817598232667,-0.00468829404148806,0.00383009730360331,0.70885507293033401,-0.00222222222222222,-0.00000000000000000,0.28333333333333333,-0.20000000000000001,1.86000000000000010,9.71000000000000085,0.00000000000000000,0.00000000000000000,11.78756534400000078
1.52019596099853516,3.31699294975031478,46.65271225015879253,32.50346030977211598,0.70528787606972632,-0.00466110916958032,0.00379035260037252,0.70889556294106426,0.00000000000000000,-0.00111111111111111,0.00111111111111111,-0.20999999999999999,1.85000000000000009,9.60999999999999943,0.00000000000000000,0.00000000000000000,11.81062009600000096
1.53017187118530273,3.33054176220896148,46.65146329050397611,32.51696424200115132,0.70529247531314287,-0.00468971493812359,0.00373927928685140,0.70889106965095394,0.00000000000000000,-0.00111111111111111,0.00111111111111111,-0.20999999999999999,1.85000000000000009,9.60999999999999943,0.00000000000000000,0.00000000000000000,11.81062009600000096
1.54021120071411133,3.36745669870048525,46.65153719819503664,32.53682765279580025,0.70527125348407471,-0.00474643200393618,0.00369628814534700,0.70891203110553846,0.00000000000000000,-0.00111111111111111,0.00111111111111111,-0.20999999999999999,1.85000000000000009,9.60999999999999943,0.00000000000000000,0.00000000000000000,11.81062009600000096
1.55017638206481934,3.28658246707762070,46.64657746765442425,32.52683762307884052,0.70532569098782438,-0.00459787758731365,0.00375551097793316,0.70885853686862987,0.00000000000000000,-0.00111111111111111,0.00111111111111111,-0.20999999999999999,1.85000000000000009,9.60999999999999943,0.00000000000000000,0.00000000000000000,11.81062009600000096
1.56017279624938965,3.32856879554989282,46.64802741232299610,32.52917505115948416,0.70522371976047515,-0.00472868611534658,0.00376104468952288,0.70895909554618475,0.00000000000000000,-0.00111111111111111,0.00111111111111111,-0.20999999999999999,1.85000000000000009,9.60999999999999943,0.00000000000000000,0.00000000000000000,11.81062009600000096
1.57018613815307617,3.31832003056194003,46.64619538017660005,32.52795333771990016,0.70526479766419781,-0.00466792226885192,0.00378136150212918,0.70891852633610908,0.00000000000000000,-0.00111111111111111,0.00111111111111111,-0.20999999999999999,1.85000000000000009,9.60999999999999943,0.00000000000000000,0.00000000000000000,11.81062009600000096
1.58020114898681641,3.29994718120905617,46.64784158351231014,32.49500285267403399,0.70528489082136614,-0.00468968454532547,0.00373850999582769,0.70889861981877866,0.00000000000000000,0.00111111111111111,0.00222222222222222,-0.20999999999999999,1.86000000000000010,9.59999999999999964,0.00000000000000000,0.00000000000000000,11.78756534400000078
1.59019565582275391,3.32286561099981492,46.66504668895431251,32.51755685477098012,0.70529885274788007,-0.00466728929043246,0.00371620777097378,0.70888499386219672,0.00000000000000000,0.00111111111111111,0.00222222222222222,-0.20999999999999999,1.86000000000000010,9.59999999999999964,0.00000000000000000,0.00000000000000000,11.78756534400000078
1.60020637512207031,3.28698755987938052,46.66656630722095400,32.50806340715454468,0.70533898290883656,-0.00459592235513702,0.00382485563057839,0.70884495283964577,0.00000000000000000,0.00111111111111111,0.00222222222222222,-0.20999999999999999,1.86000000000000010,9.59999999999999964,0.00000000000000000,0.00000000000000000,11.78756534400000078
1.61020708084106445,3.35605870740737933,46.65226131693551537,32.56509061658461945,0.70530145700005453,-0.00468801193633581,0.00372765689427903,0.70888220592124052,0.00000000000000000,0.00111111111111111,0.00222222222222222,-0.20999999999999999,1.86000000000000010,9.59999999999999964,0.00000000000000000,0.00000000000000000,11.78756534400000078
1.62024664878845215,3.30570898918112599,46.68473111908452466,32.50400369192118433,0.70530625207448527,-0.00456001426151064,0.00375399447143493,0.70887813097886276,0.00000000000000000,0.00111111111111111,0.00222222222222222,-0.20999999999999999,1.86000000000000010,9.59999999999999964,0.00000000000000000,0.00000000000000000,11.78756534400000078
1.63015246391296387,3.36628059202800367,46.65640883815940043,32.52338684166714700,0.70529616791642591,-0.00469678422693375,0.00372365449926095,0.70888743121704501,0.00222222222222222,-0.00000000000000000,-0.00111111111111111,-0.20999999999999999,1.84000000000000008,9.58000000000000007,0.00000000000000000,0.00000000000000000,11.81062009600000096
1.64024114608764648,3.37176152324757794,46.62300447830862282,32.49985528041201377,0.70521240405061325,-0.00477906563796640,0.00381089072955555,0.70896974746220986,0.00222222222222222,-0.00000000000000000,-0.00111111111111111,-0.20999999999999999,1.84000000000000008,9.58000000000000007,0.00000000000000000,0.00000000000000000,11.81062009600000096
1.65015602111816406,3.31003744068927119,46.62686281032463143,32.52988393414327817,0.70527090849589791,-0.00462464844983658,0.00382298951472339,0.70891250730062361,0.00222222222222222,-0.00000000000000000,-0.00111111111111111,-0.20999999999999999,1.84000000000000008,9.58000000000000007,0.00000000000000000,0.00000000000000000,11.81062009600000096
1.66025519371032715,3.32903463205456740,46.65457289171345678,32.54620785221399615,0.70528070695959422,-0.00464466226839035,0.00380666290106123,0.70890271604822130,0.00222222222222222,-0.00000000000000000,-0.00111111111111111,-0.20999999999999999,1.84000000000000008,9.58000000000000007,0.00000000000000000,0.00000000000000000,11.81062009600000096
1.67035770416259766,3.30858549780410494,46.65865115362060322,32.49049477148101062,0.70530650682740159,-0.00461119480238416,0.00379625740942201,0.70887732136040627,-0.00111111111111111,0.00222222222222222,-0.00000000000000000,-0.20000000000000001,1.86000000000000010,9.63000000000000078,0.00000000000000000,0.00000000000000000,11.80403302400000065
1.68012905120849609,3.38796458313396798,46.64643236178500274,32.51560195129437858,0.70531956355181169,-0.00475148955762667,0.00369214081595627,0.70886395360059129,-0.00111111111111111,0.00222222222222222,-0.00000000000000000,-0.20000000000000001,1.86000000000000010,9.63000000000000078,0.00000000000000000,0.00000000000000000,11.80403302400000065
1.69015383720397949,3.39987609931462842,46.64843510962868578,32.54383057745925356,0.70532399895753395,-0.00478529471110117,0.00365673105800206,0.70885949649211166,-0.00111111111111111,0.00222222222222222,-0.00000000000000000,-0.20000000000000001,1.86000000000000010,9.63000000000000078,0.00000000000000000,0.00000000000000000,11.80403302400000065
1.70010304450988770,3.29850437593271195,46.63824452494276329,32.55250693701998443,0.70525454565799250,-0.00459459207315503,0.00389289906774133,0.70892860069915975,-0.00111111111111111,0.00222222222222222,-0.00000000000000000,-0.20000000000000001,1.86000000000000010,9.63000000000000078,0.00000000000000000,0.00000000000000000,11.80403302400000065
1.71009540557861328,3.34534061155796048,46.62903343162152936,32.55692628034901048,0.70530372147290188,-0.00469634646241933,0.00379197165160935,0.70887955659432955,-0.00111111111111111,0.00222222222222222,-0.00000000000000000,-0.20000000000000001,1.86000000000000010,9.63000000000000078,0.00000000000000000,0.00000000000000000,11.80403302400000065
1.72007679939270020,3.28933645428157240,46.65703079549936660,32.52949753505422592,0.70524858065003959,-0.00455828364215136,0.00387828009514890,0.70893484925262751,0.28333333333333333,-0.00222222222222222,0.00333333333333333,-0.20000000000000001,1.84000000000000008,9.58999999999999986,0.00000000000000000,0.00000000000000000,11.81720716800000126
1.73013329505920410,3.34697760483736673,46.63521766593547824,32.49282236739730934,0.70529745223512896,-0.00465962566035611,0.00388815858448168,0.70888551542697120,0.28333333333333333,-0.00222222222222222,0.00333333333333333,-0.20000000000000001,1.84000000000000008,9.58999999999999986,0.00000000000000000,0.00000000000000000,11.81720716800000126
1.74011516571044922,3.36729562914417713,46.60807634162114965,32.47742496558543479,0.70521428698652333,-0.00476544389050326,0.00394326785384475,0.70896724227093111,0.28333333333333333,-0.00222222222222222,0.00333333333333333,-0.20000000000000001,1.84000000000000008,9.58999999999999986,0.00000000000000000,0.00000000000000000,11.81720716800000126
1.75015807151794434,3.37822979766311926,46.68265436909350541,32.50082498294190714,0.70527451545716813,-0.00471275858945096,0.00367255270977800,0.70890913388792520,0.28333333333333333,-0.00222222222222222,0.00333333333333333,-0.20000000000000001,1.84000000000000008,9.58999999999999986,0.00000000000000000,0.00000000000000000,11.81720716800000126
1.76019692420959473,3.38113137792646867,46.63098940409791027,32.50723008681642767,0.70527565399819003,-0.00482088809499821,0.00380972922739782,0.70890655017330406,0.28333333333333333,-0.00222222222222222,0.00333333333333333,-0.20000000000000001,1.84000000000000008,9.58999999999999986,0.00000000000000000,0.00000000000000000,11.81720716800000126
1.77017807960510254,3.30033977650115906,46.68686921638639120,32.51104952349851374,0.70527426042252672,-0.00454320131594649,0.00383349038235778,0.70890964252064514,0.00000000000000000,0.00222222222222222,0.00222222222222222,-0.20999999999999999,1.85000000000000009,9.59999999999999964,0.00000000000000000,0.00000000000000000,11.79085888000000004
1.78022074699401855,3.41634542884731252,46.61981692976353742,32.51390332554047546,0.70531092285303132,-0.00484003702014652,0.00374752818387503,0.70887166128881185,0.00000000000000000,0.00222222222222222,0.00222222222222222,-0.20999999999999999,1.85000000000000009,9.59999999999999964,0.00000000000000000,0.00000000000000000,11.79085888000000004
1.79017615318298340,3.42923157023408143,46.61385587963499688,32.50812232971752991,0.70524832356312250,-0.00488880691893630,0.00376663161335971,0.70893350475527961,0.00000000000000000,0.00222222222222222,0.00222222222222222,-0.20999999999999999,1.85000000000000009,9.59999999999999964,0.00000000000000000,0.00000000000000000,11.79085888000000004
1.80018877983093262,3.40746523620936648,46.67263679625910555,32.52297742706349482,0.70531860213011577,-0.00468262247704695,0.00375224416537783,0.70886505288360790,0.00000000000000000,0.00222222222222222,0.00222222222222222,-0.20999999999999999,1.85000000000000009,9.59999999999999964,0.00000000000000000,0.00000000000000000,11.79085888000000004
1.81022191047668457,3.38035423711440908,46.63092746529506627,32.51720446613518334,0.70525279648541794,-0.00482424854986206,0.00384201099556802,0.70892909280613980,0.00000000000000000,0.00222222222222222,0.00222222222222222,-0.20999999999999999,1.85000000000000009,9.59999999999999964,0.00000000000000000,0.00000000000000000,11.79085888000000004
1.82020854949951172,3.27401460925238430,46.65449660923479769,32.48706061164772763,0.70525920269035192,-0.00466403942532089,0.00382533883075771,0.70892388204915069,0.00000000000000000,0.00222222222222222,0.00222222222222222,-0.20999999999999999,1.85000000000000009,9.59999999999999964,0.00000000000000000,0.00000000000000000,11.79085888000000004
1.83019804954528809,3.32662335558452904,46.67556151538644826,32.51703774650344059,0.70531483464131939,-0.00464461876742554,0.00372288992144547,0.70886920630115258,-0.00222222222222222,0.00222222222222222,-0.00111111111111111,-0.22000000000000000,1.86000000000000010,9.66000000000000014,0.00000000000000000,0.00000000000000000,11.78756534400000078
1.84021997451782227,3.32618963852235083,46.66790253688966317,32.50126591389199149,0.70535439569853808,-0.00464949851825763,0.00368288787433604,0.70883001838888282,-0.00222222222222222,0.00222222222222222,-0.00111111111111111,-0.22000000000000000,1.86000000000000010,9.66000000000000014,0.00000000000000000,0.00000000000000000,11.78756534400000078
1.85022449493408203,3.30063796454688907,46.63592283686134721,32.52068095301844153,0.70529688941080604,-0.00473651913565383,0.00378289504591459,0.70888613534120593,-0.00222222222222222,0.00222222222222222,-0.00111111111111111,-0.22000000000000000,1.86000000000000010,9.66000000000000014,0.00000000000000000,0.00000000000000000,11.78756534400000078
1.86019849777221680,3.36112318538921073,46.64229428956000589,32.54820804329109052,0.70534116933717306,-0.00468417259920458,0.00373195506618036,0.70884269473312256,-0.00222222222222222,0.00222222222222222,-0.00111111111111111,-0.22000000000000000,1.86000000000000010,9.66000000000000014,0.00000000000000000,0.00000000000000000,11.78756534400000078
1.87024402618408203,3.36354832166504059,46.68345730714680286,32.51253344066656581,0.70532459857061180,-0.00465879184339498,0.00365710619209286,0.70885974062861312,-0.00222222222222222,0.00222222222222222,-0.00111111111111111,-0.22000000000000000,1.86000000000000010,9.66000000000000014,0.00000000000000000,0.00000000000000000,11.78756534400000078
1.88011121749877930,3.38310206447142647,46.63928972376759674,32.50333342637691914,0.70527882415019916,-0.00487782646712505,0.00369718565310208,0.70890360263756280,-0.00222222222222222,0.00222222222222222,-0.00111111111111111,-0.22000000000000000,1.86000000000000010,9.66000000000000014,0.00000000000000000,0.00000000000000000,11.78756534400000078
1.89010858535766602,3.36418459284209570,46.64067898378889510,32.51743860175907486,0.70528285953214354,-0.00477881125228766,0.00376166758185786,0.70889992302875948,0.00000000000000000,-0.00000000000000000,-0.00111111111111111,-0.17999999999999999,1.83000000000000007,9.68999999999999950,0.00000000000000000,0.00000000000000000,11.78097827200000047
1.90012311935424805,3.30245545751518543,46.65773787775091108,32.55498735190152360,0.70528129228371006,-0.00455681224724377,0.00390467523404022,0.70890217077399331,0.00000000000000000,-0.00000000000000000,-0.00111111111111111,-0.17999999999999999,1.83000000000000007,9.68999999999999950,0.00000000000000000,0.00000000000000000,11.78097827200000047
1.91017150878906250,3.31524118523123335,46.66277131018586033,32.55415171561731569,0.70520517903066682,-0.00472229867292904,0.00376110666718968,0.70897758035089264,0.00000000000000000,-0.00000000000000000,-0.00111111111111111,-0.17999999999999999,1.83000000000000007,9.68999999999999950,0.00000000000000000,0.00000000000000000,11.78097827200000047
1.92010855674743652,3.29896224801710725,46.66907905772799126,32.52864860377933809,0.70527398333408930,-0.00454769197468322,0.00378044712475359,0.70891017424586811,-0.00111111111111111,-0.00000000000000000,-0.00111111111111111,-0.22000000000000000,1.85000000000000009,9.58999999999999986,0.00000000000000000,0.00000000000000000,11.81062009600000096
1.93009757995605469,3.38785564671186856,46.65677693630207301,32.52780287526091740,0.70526764311717272,-0.00472355183618357,0.00373468607822409,0.70891557448676223,-0.00111111111111111,-0.00000000000000000,-0.00111111111111111,-0.22000000000000000,1.85000000000000009,9.58999999999999986,0.00000000000000000,0.00000000000000000,11.81062009600000096
1.94023537635803223,3.31468342076020184,46.62375229161900592,32.52728660685020401,0.70529236161913411,-0.00473650929756381,0.00378420008966064,0.70889063327925284,-0.00111111111111111,-0.00000000000000000,-0.00111111111111111,-0.22000000000000000,1.85000000000000009,9.58999999999999986,0.00000000000000000,0.00000000000000000,11.81062009600000096
1.95025682449340820,3.27850266974407978,46.66180384969769790,32.51027743123379565,0.70534084763572469,-0.00461569633507330,0.00370304441033003,0.70884361566283094,-0.00111111111111111,-0.00000000000000000,-0.00111111111111111,-0.22000000000000000,1.85000000000000009,9.58999999999999986,0.00000000000000000,0.00000000000000000,11.81062009600000096
1.96027374267578125,3.30680053890713666,46.66827033700519678,32.56955506066509543,0.70534753069358869,-0.00457709818238517,0.00374342745613347,0.70883700373750724,-0.00111111111111111,-0.00000000000000000,-0.00111111111111111,-0.22000000000000000,1.85000000000000009,9.58999999999999986,0.00000000000000000,0.00000000000000000,11.81062009600000096
1.97008562088012695,3.32120176915914556,46.65448586093242511,32.51451355312311620,0.70527193766077689,-0.00471513811113897,0.00372535223161105,0.70891140713883061,-0.00111111111111111,-0.00000000000000000,-0.00111111111111111,-0.22000000000000000,1.85000000000000009,9.58999999999999986,0.00000000000000000,0.00000000000000000,11.81062009600000096
1.98017072677612305,3.40633190977910649,46.65453611680842272,32.54716308481277309,0.70529130007735874,-0.00479465543814597,0.00362557032739544,0.70889212758657405,0.00111111111111111,0.00111111111111111,-0.00000000000000000,-0.20000000000000001,1.85000000000000009,9.57000000000000028,0.00000000000000000,0.00000000000000000,11.80073948799999961
1.99019742012023926,3.42066628514289528,46.66361553829765541,32.56519553761673791,0.70533917115620060,-0.00480071031852313,0.00353516876735510,0.70884491208931444,0.00111111111111111,0.00111111111111111,-0.00000000000000000,-0.20000000000000001,1.85000000000000009,9.57000000000000028,0.00000000000000000,0.00000000000000000,11.80073948799999961
2.00013661384582520,3.38243501080462039,46.67573518798295851,32.53715882783658486,0.70527849908696860,-0.00470951436113411,0.00360126548479925,0.70890555794620658,0.00111111111111111,0.00111111111111111,-0.00000000000000000,-0.20000000000000001,1.85000000000000009,9.57000000000000028,0.00000000000000000,0.00000000000000000,11.80073948799999961
2.01005792617797852,3.38100447305415619,46.66216099059210620,32.57183254278985629,0.70530330409643971,-0.00473112783423064,0.00375725577990400,0.70887992543805711,0.00111111111111111,0.00111111111111111,-0.00000000000000000,-0.20000000000000001,1.85000000000000009,9.57000000000000028,0.00000000000000000,0.00000000000000000,11.80073948799999961
2.02008867263793945,3.33761175601100879,46.68839440595337464,32.52712535290623208,0.70529148787536355,-0.00464596666901677,0.00367603601268296,0.70889267091958263,-0.28333333333333333,0.00111111111111111,-0.00000000000000000,-0.19000000000000000,1.86000000000000010,9.63000000000000078,0.00000000000000000,0.00000000000000000,11.81062009600000096
2.03008747100830078,3.37253799613182892,46.64521707788401272,32.53256888201320862,0.70531699498484191,-0.00477166376674303,0.00368419372207351,0.70886641514961590,-0.28333333333333333,0.00111111111111111,-0.00000000000000000,-0.19000000000000000,1.86000000000000010,9.63000000000000078,0.00000000000000000,0.00000000000000000,11.81062009600000096
2.04008960723876953,3.35727658908602100,46.64975206692442811,32.53405798624455514,0.70529296080880644,-0.00469679242584933,0.00373981419880022,0.70889053694079895,-0.28333333333333333,0.00111111111111111,-0.00000000000000000,-0.19000000000000000,1.86000000000000010,9.63000000000000078,0.00000000000000000,0.00000000000000000,11.81062009600000096
2.05023550987243652,3.30278666310742119,46.64749070105110462,32.52779671022124575,0.70526347360029296,-0.00469481242610563,0.00387160498008296,0.70891917890293477,-0.28333333333333333,0.00111111111111111,-0.00000000000000000,-0.19000000000000000,1.86000000000000010,9.63000000000000078,0.00000000000000000,0.00000000000000000,11.81062009600000096
2.06020712852478027,3.37641126499074673,46.66494779902342316,32.52513251947569017,0.70532182240073094,-0.00474680503329161,0.00372816204552784,0.70886154889022612,-0.28333333333333333,0.00111111111111111,-0.00000000000000000,-0.19000000000000000,1.86000000000000010,9.63000000000000078,0.00000000000000000,0.00000000000000000,11.81062009600000096
2.07025957107543945,3.31400430921617106,46.67228808924500072,32.48656343874706209,0.70531511306400507,-0.00463826379200220,0.00374227487883663,0.70886886881230504,0.00000000000000000,-0.00111111111111111,-0.00111111111111111,-0.20000000000000001,1.87000000000000011,9.57000000000000028,0.00000000000000000,0.00000000000000000,11.78756534400000078
2.08018970489501953,3.36837809211933470,46.61555263899000323,32.49471777065214440,0.70530429021330865,-0.00470868040506938,0.00381047590183859,0.70887880967690486,0.00000000000000000,-0.00111111111111111,-0.00111111111111111,-0.20000000000000001,1.87000000000000011,9.57000000000000028,0.00000000000000000,0.00000000000000000,11.78756534400000078
2.09019351005554199,3.40758807449040058,46.61588739893613820,32.48584023603783777,0.70529428474845923,-0.00486759467702755,0.00377678237035820,0.70888787148472621,0.00000000000000000,-0.00111111111111111,-0.00111111111111111,-0.20000000000000001,1.87000000000000011,9.57000000000000028,0.00000000000000000,0.00000000000000000,11.78756534400000078
2.10016298294067383,3.27652636991627011,46.64127979345315111,32.53173792633186423,0.70526181293710233,-0.00462547865504106,0.00386174510913091,0.70892134054815648,0.00000000000000000,-0.00111111111111111,-0.00111111111111111,-0.20000000000000001,1.87000000000000011,9.57000000000000028,0.00000000000000000,0.00000000000000000,11.78756534400000078
2.11021494865417480,3.38499981748678636,46.68520083920551400,32.55608797155048961,0.70533048991943892,-0.00470107331015389,0.00367190877461682,0.70885352294087345,0.00000000000000000,-0.00111111111111111,-0.00111111111111111,-0.20000000000000001,1.87000000000000011,9.57000000000000028,0.00000000000000000,0.00000000000000000,11.78756534400000078
2.12019038200378418,3.27576794981840891,46.67047802887648089,32.53197811433587106,0.70527247054330755,-0.00448777084356204,0.00387693501915744,0.70891154002558854,0.00000000000000000,-0.00111111111111111,-0.00111111111111111,-0.20000000000000001,1.87000000000000011,9.57000000000000028,0.00000000000000000,0.00000000000000000,11.78756534400000078
2.13013601303100586,3.40472388228121758,46.64364404888095805,32.51556671959334466,0.70535502165361108,-0.00479499082536362,0.00365364072072498,0.70882857758452600,-0.00111111111111111,-0.00000000000000000,-0.00000000000000000,-0.20000000000000001,1.85000000000000009,9.58000000000000007,0.00000000000000000,0.00000000000000000,11.80732655999999992
2.14011549949645996,3.37032494018872475,46.63999045224792184,32.51236201279216687,0.70526922523996516,-0.00473816085709409,0.00378175478651420,0.70891365348104740,-0.00111111111111111,-0.00000000000000000,-0.00000000000000000,-0.20000000000000001,1.85000000000000009,9.58000000000000007,0.00000000000000000,0.00000000000000000,11.80732655999999992
2.15017557144165039,3.30621599369403318,46.63406544490155881,32.51146781872577662,0.70529733719014420,-0.00463027691684835,0.00384321420687068,0.70888606728636228,-0.00111111111111111,-0.00000000000000000,-0.00000000000000000,-0.20000000000000001,1.85000000000000009,9.58000000000000007,0.00000000000000000,0.00000000000000000,11.80732655999999992
2.16018056869506836,3.33692477033318502,46.65145256190970002,32.51232371306300450,0.70532437155451488,-0.00470675859298345,0.00372702405907321,0.70885928547663035,-0.00111111111111111,-0.00000000000000000,-0.00000000000000000,-0.20000000000000001,1.85000000000000009,9.58000000000000007,0.00000000000000000,0.00000000000000000,11.80732655999999992
2.17008757591247559,3.28520515271121027,46.66828303095575592,32.52247630898023090,0.70526204935375236,-0.00450620313576841,0.00388470057073214,0.70892174813312092,-0.00111111111111111,-0.00000000000000000,-0.00000000000000000,-0.20000000000000001,1.85000000000000009,9.58000000000000007,0.00000000000000000,0.00000000000000000,11.80732655999999992
2.18023467063903809,3.39062759759743892,46.63578421206963043,32.53089083048008945,0.70524838881876650,-0.00473663337437706,0.00376827918016986,0.70893446413954930,0.00111111111111111,0.00111111111111111,-0.00111111111111111,-0.22000000000000000,1.86000000000000010,9.61999999999999922,0.00000000000000000,0.00000000000000000,11.79415241600000108
2.19011688232421875,3.35319379600207768,46.63973280127597576,32.53284606022526759,0.70524395542833362,-0.00469812237163702,0.00379538651039526,0.70893898610473938,0.00111111111111111,0.00111111111111111,-0.00111111111111111,-0.22000000000000000,1.86000000000000010,9.61999999999999922,0.00000000000000000,0.00000000000000000,11.79415241600000108
2.20023775100708008,3.37876297598756414,46.67963852262514735,32.51687771567210916,0.70527299035609026,-0.00470508300806259,0.00367959883341115,0.70891066561344007,0.00111111111111111,0.00111111111111111,-0.00111111111111111,-0.22000000000000000,1.86000000000000010,9.61999999999999922,0.00000000000000000,0.00000000000000000,11.79415241600000108
2.21019911766052246,3.33824798483544916,46.62067386524967105,32.53796815411549659,0.70519366685159879,-0.00478768819188261,0.00386593693177191,0.70898802867595234,0.00111111111111111,0.00111111111111111,-0.00111111111111111,-0.22000000000000000,1.86000000000000010,9.61999999999999922,0.00000000000000000,0.00000000000000000,11.79415241600000108
2.22024464607238770,3.33670337340560286,46.69103350721658074,32.55220980408007136,0.70525900828567656,-0.00461155462996587,0.00369870213868233,0.70892509082292154,0.00000000000000000,-0.00222222222222222,0.00222222222222222,-0.20000000000000001,1.85000000000000009,9.59999999999999964,0.00000000000000000,0.00000000000000000,11.79744595200000035
2.23020434379577637,3.41469476165597419,46.65336079313858164,32.55832461665435318,0.70532736635590032,-0.00477678889633210,0.00357869413288275,0.70885660151090657,0.00000000000000000,-0.00222222222222222,0.00222222222222222,-0.20000000000000001,1.85000000000000009,9.59999999999999964,0.00000000000000000,0.00000000000000000,11.79744595200000035
2.24014353752136230,3.41480654794464655,46.64307889387115580,32.50053619242522984,0.70529145100042334,-0.00485895137605737,0.00360735281424191,0.70889163258069010,0.00000000000000000,-0.00222222222222222,0.00222222222222222,-0.20000000000000001,1.85000000000000009,9.59999999999999964,0.00000000000000000,0.00000000000000000,11.79744595200000035
2.25010442733764648,3.28637128786454147,46.63019594579279925,32.51239491497474177,0.70530614626580979,-0.00465862183438404,0.00378929163600498,0.70887740727940640,0.00000000000000000,-0.00222222222222222,0.00222222222222222,-0.20000000000000001,1.85000000000000009,9.59999999999999964,0.00000000000000000,0.00000000000000000,11.79744595200000035
2.26015043258666992,3.34265682037106382,46.62831775567568826,32.54113501092067651,0.70521272569755045,-0.00472169636798751,0.00386083284938776,0.70896954170637594,0.00000000000000000,-0.00222222222222222,0.00222222222222222,-0.20000000000000001,1.85000000000000009,9.59999999999999964,0.00000000000000000,0.00000000000000000,11.79744595200000035
2.27008080482482910,3.31262139861354044,46.68545303015302039,32.55804178246042824,0.70530444097092537,-0.00459302849744865,0.00365296077218922,0.70888024765365631,0.00000000000000000,-0.00222222222222222,0.00222222222222222,-0.20000000000000001,1.85000000000000009,9.59999999999999964,0.00000000000000000,0.00000000000000000,11.79744595200000035
2.28008961677551270,3.36266491418611002,46.63652533106420606,32.54543157274248699,0.70527542729580006,-0.00475098411682875,0.00366832247898094,0.70890799347506162,0.00111111111111111,-0.00000000000000000,-0.00000000000000000,-0.20000000000000001,1.85000000000000009,9.58999999999999986,0.00000000000000000,0.00000000000000000,11.80732655999999992
2.29007458686828613,3.43325402250053813,46.66105853041793949,32.53996700098534944,0.70529122189399451,-0.00483119921337716,0.00361955310421557,0.70889198801281583,0.00111111111111111,-0.00000000000000000,-0.00000000000000000,-0.20000000000000001,1.85000000000000009,9.58999999999999986,0.00000000000000000,0.00000000000000000,11.80732655999999992
2.30009150505065918,3.42636153478881544,46.65105400842097794,32.49114150184052363,0.70534520508922571,-0.00484196830539440,0.00370185712783312,0.70883777640188816,0.00111111111111111,-0.00000000000000000,-0.00000000000000000,-0.20000000000000001,1.85000000000000009,9.58999999999999986,0.00000000000000000,0.00000000000000000,11.80732655999999992
2.31012892723083496,3.33748358414437840,46.64426190335560563,32.56437937057349075,0.70523963835337211,-0.00473834872264443,0.00368028140300475,0.70894361981428577,0.00111111111111111,-0.00000000000000000,-0.00000000000000000,-0.20000000000000001,1.85000000000000009,9.58999999999999986,0.00000000000000000,0.00000000000000000,11.80732655999999992
2.32008790969848633,3.30148927900849865,46.65133451665656139,32.47633694265019244,0.70529811340074033,-0.00470912850051366,0.00370801748064096,0.70888549565390679,0.00111111111111111,-0.00000000000000000,-0.00000000000000000,-0.20000000000000001,1.85000000000000009,9.58999999999999986,0.00000000000000000,0.00000000000000000,11.80732655999999992
2.33012890815734863,3.38694911856098457,46.62863384622678353,32.50135460228359108,0.70531820979275428,-0.00473272118300053,0.00375180644397551,0.70886511286235188,0.00000000000000000,0.00222222222222222,-0.00111111111111111,-0.20999999999999999,1.84000000000000008,9.58000000000000007,0.00000000000000000,0.00000000000000000,11.79415241600000108
2.34011292457580566,3.34818817285931658,46.64085952640422050,32.54271828045173010,0.70524652427274226,-0.00473554235881300,0.00369725373284451,0.70893670024524658,0.00000000000000000,0.00222222222222222,-0.00111111111111111,-0.20999999999999999,1.84000000000000008,9.58000000000000007,0.00000000000000000,0.00000000000000000,11.79415241600000108
2.35013008117675781,3.30064246966357766,46.65339439918462716,32.51168417907079089,0.70528637004616435,-0.00462881634434690,0.00380421461609117,0.70889719863849820,0.00000000000000000,0.00222222222222222,-0.00111111111111111,-0.20999999999999999,1.84000000000000008,9.58000000000000007,0.00000000000000000,0.00000000000000000,11.79415241600000108
2.36020541191101074,3.40090386767610431,46.65145994733665447,32.55022823587228942,0.70529372360790543,-0.00471656937692255,0.00376401119292153,0.70888951863625926,0.00000000000000000,0.00222222222222222,-0.00111111111111111,-0.20999999999999999,1.84000000000000008,9.58000000000000007,0.00000000000000000,0.00000000000000000,11.79415241600000108
2.37019205093383789,3.30242970113627399,46.66126022165963150,32.51384512670801286,0.70529708810938752,-0.00460327757972382,0.00381161663648626,0.70888666154651159,0.00000000000000000,-0.00000000000000000,-0.00000000000000000,-0.20000000000000001,1.84000000000000008,9.60999999999999943,0.00000000000000000,0.00000000000000000,11.81062009600000096
2.38025236129760742,3.34955386899643903,46.63633883061296359,32.50861206272575288,0.70528950046688565,-0.00475822771281027,0.00375524845422434,0.70889348840940158,0.00000000000000000,-0.00000000000000000,-0.00000000000000000,-0.20000000000000001,1.84000000000000008,9.60999999999999943,0.00000000000000000,0.00000000000000000,11.81062009600000096
2.39013600349426270,3.34942790314785332,46.63806259250396380,32.46140302402532996,0.70530844698159934,-0.00473418366890178,0.00381290291749579,0.70887449093103605,0.00000000000000000,-0.00000000000000000,-0.00000000000000000,-0.20000000000000001,1.84000000000000008,9.60999999999999943,0.00000000000000000,0.00000000000000000,11.81062009600000096
2.40015172958374023,3.37192433678575432,46.64346768048888947,32.54217598303288383,0.70530690372034466,-0.00473584953753750,0.00377584179749989,0.70887621367365550,0.00000000000000000,-0.00000000000000000,-0.00000000000000000,-0.20000000000000001,1.84000000000000008,9.60999999999999943,0.00000000000000000,0.00000000000000000,11.81062009600000096
2.41021084785461426,3.31951632320784507,46.67084249054568090,32.53546448859780327,0.70526425452625563,-0.00470608563250057,0.00370707792240146,0.70891920669341535,0.00000000000000000,-0.00000000000000000,-0.00000000000000000,-0.20000000000000001,1.84000000000000008,9.60999999999999943,0.00000000000000000,0.00000000000000000,11.81062009600000096
2.42014431953430176,3.34055397861503289,46.63778075054684535,32.50886869152073189,0.70525545780141063,-0.00471167171741736,0.00379134687928173,0.70892747519036914,0.00000000000000000,-0.00000000000000000,-0.00000000000000000,-0.20000000000000001,1.84000000000000008,9.60999999999999943,0.00000000000000000,0.00000000000000000,11.81062009600000096
2.43009066581726074,3.29243940111518407,46.66254321484374401,32.50123193336307992,0.70526541897747153,-0.00466427755819160,0.00374009102605849,0.70891815114899392,0.00111111111111111,-0.00000000000000000,-0.00000000000000000,-0.20000000000000001,1.84000000000000008,9.58999999999999986,0.00000000000000000,0.00000000000000000,11.81062009600000096
2.44011116027832031,3.37107355418566934,46.64672247557845708,32.49983447308748907,0.70533423854652122,-0.00475883242006705,0.00369363147867751,0.70884929465613244,0.00111111111111111,-0.00000000000000000,-0.00000000000000000,-0.20000000000000001,1.84000000000000008,9.58999999999999986,0.00000000000000000,0.00000000000000000,11.81062009600000096
2.45010542869567871,3.24404128989392371,46.63703594849787493,32.50594952210111188,0.70528910042149628,-0.00464949294595071,0.00386280187559058,0.70889403002398887,0.00111111111111111,-0.00000000000000000,-0.00000000000000000,-0.20000000000000001,1.84000000000000008,9.58999999999999986,0.00000000000000000,0.00000000000000000,11.81062009600000096
2.46011614799499512,3.27578241361952527,46.68222264101300567,32.51584343542700140,0.70533356297981131,-0.00460586483139032,0.00374443222130910,0.70885071077815787,0.00111111111111111,-0.00000000000000000,-0.00000000000000000,-0.20000000000000001,1.84000000000000008,9.58999999999999986,0.00000000000000000,0.00000000000000000,11.81062009600000096
2.47008061408996582,3.24908474624524368,46.68117820657560202,32.47696395179309548,0.70527886710333476,-0.00456163459017965,0.00381655831737396,0.70890503241965530,0.00111111111111111,-0.00000000000000000,-0.00000000000000000,-0.20000000000000001,1.84000000000000008,9.58999999999999986,0.00000000000000000,0.00000000000000000,11.81062009600000096
2.48008751869201660,3.38455247941078463,46.65536283760584269,32.53151143172195248,0.70531013762062666,-0.00481966305024580,0.00370067291516588,0.70887282754922276,0.00000000000000000,0.28444444444444444,-0.00111111111111111,-0.20999999999999999,1.83000000000000007,9.57000000000000028,0.00000000000000000,0.00000000000000000,11.79085888000000004
2.49008750915527344,3.34529496458359210,46.62716182765441886,32.47483941689596065,0.70525127657097786,-0.00481986206674545,0.00383503372116294,0.70893067245043151,0.00000000000000000,0.28444444444444444,-0.00111111111111111,-0.20999999999999999,1.83000000000000007,9.57000000000000028,0.00000000000000000,0.00000000000000000,11.79085888000000004
2.50023651123046875,3.36400130858858271,46.68032740089284971,32.51519558279049704,0.70524719009820791,-0.00467873121667485,0.00366551144121082,0.70893657992704706,0.00000000000000000,0.28444444444444444,-0.00111111111111111,-0.20999999999999999,1.83000000000000007,9.57000000000000028,0.00000000000000000,0.00000000000000000,11.79085888000000004
2.51020026206970215,3.33690829870059247,46.64863468817970471,32.54146566836461574,0.70529408711184960,-0.00471740292607072,0.00377478608257326,0.70888909413583612,0.00000000000000000,0.28444444444444444,-0.00111111111111111,-0.20999999999999999,1.83000000000000007,9.57000000000000028,0.00000000000000000,0.00000000000000000,11.79085888000000004
2.52026367187500000,3.32051939363964266,46.65608390258685034,32.47976150418302410,0.70521545437310340,-0.00467495827583673,0.00381676069096260,0.70896737584763658,0.00000000000000000,0.28444444444444444,-0.00111111111111111,-0.20999999999999999,1.83000000000000007,9.57000000000000028,0.00000000000000000,0.00000000000000000,11.79085888000000004
2.53015637397766113,3.36491737189366802,46.63935689167052345,32.49542320164260190,0.70526604092344580,-0.00474552697568197,0.00388605422385768,0.70891620807854405,0.00111111111111111,0.00111111111111111,-0.00000000000000000,-0.17999999999999999,1.85000000000000009,9.64000000000000057,0.00000000000000000,0.00000000000000000,11.79415241600000108
2.54020476341247559,3.44024583462420352,46.62950148639064452,32.51612498034578635,0.70534480627865448,-0.00474855482290471,0.00378308029415960,0.70883837634986246,0.00111111111111111,0.00111111111111111,-0.00000000000000000,-0.17999999999999999,1.85000000000000009,9.64000000000000057,0.00000000000000000,0.00000000000000000,11.79415241600000108
2.55019783973693848,3.32975776981569416,46.62646364743682881,32.51369374274242574,0.70523782983974470,-0.00466693072948222,0.00396738647695315,0.70894434405321016,0.00111111111111111,0.00111111111111111,-0.00000000000000000,-0.17999999999999999,1.85000000000000009,9.64000000000000057,0.00000000000000000,0.00000000000000000,11.79415241600000108
2.56021356582641602,3.30975859365546432,46.60446011267125499,32.56785131225277752,0.70520718313967856,-0.00481173706839497,0.00375302588128836,0.70897502835524373,0.00111111111111111,0.00111111111111111,-0.00000000000000000,-0.17999999999999999,1.85000000000000009,9.64000000000000057,0.00000000000000000,0.00000000000000000,11.79415241600000108
2.57019376754760742,3.30312907028110692,46.66771204460560085,32.54877381025785610,0.70526008410713981,-0.00453181257264391,0.00383142846890832,0.70892382989703751,-0.00222222222222222,0.00222222222222222,-0.00000000000000000,-0.20999999999999999,1.83000000000000007,9.57000000000000028,0.00000000000000000,0.00000000000000000,11.80732655999999992
2.58013820648193359,3.32284992298213666,46.62335137648773298,32.49583051658249389,0.70525277926068919,-0.00475602790021865,0.00381241497518630,0.70892973067557463,-0.00222222222222222,0.00222222222222222,-0.00000000000000000,-0.20999999999999999,1.83000000000000007,9.57000000000000028,0.00000000000000000,0.00000000000000000,11.80732655999999992
2.59022736549377441,3.35509266979277365,46.62784981812976781,32.50354180564791307,0.70525711304696348,-0.00472743150350309,0.00392597382752134,0.70892499082593186,-0.00222222222222222,0.00222222222222222,-0.00000000000000000,-0.20999999999999999,1.83000000000000007,9.57000000000000028,0.00000000000000000,0.00000000000000000,11.80732655999999992
2.60012245178222656,3.30400323715050481,46.64464951436082174,32.55072099221484194,0.70524287556296461,-0.00463444391424736,0.00385345801845802,0.70894016620486811,-0.00222222222222222,0.00222222222222222,-0.00000000000000000,-0.20999999999999999,1.83000000000000007,9.57000000000000028,0.00000000000000000,0.00000000000000000,11.80732655999999992
2.61009621620178223,3.27881848277669041,46.67920333098616226,32.52159924994663243,0.70534154086530787,-0.00453283147638127,0.00375445336932405,0.70884319016864195,-0.00222222222222222,0.00222222222222222,-0.00000000000000000,-0.20999999999999999,1.83000000000000007,9.57000000000000028,0.00000000000000000,0.00000000000000000,11.80732655999999992
2.62008714675903320,3.25685756008648974,46.68041121675469185,32.53857892787292627,0.70523481489334783,-0.00448115963090497,0.00379297536107529,0.70894949637376725,-0.00222222222222222,0.00222222222222222,-0.00000000000000000,-0.20999999999999999,1.83000000000000007,9.57000000000000028,0.00000000000000000,0.00000000000000000,11.80732655999999992
2.63007235527038574,3.37864958132879778,46.64024769316157659,32.50795189407178754,0.70529635739639607,-0.00473964439010961,0.00370585291952542,0.70888705071299551,0.00000000000000000,0.00111111111111111,-0.00000000000000000,-0.20000000000000001,1.84000000000000008,9.57000000000000028,0.00000000000000000,0.00000000000000000,11.80732655999999992
2.64007353782653809,3.36651896817916585,46.64954744554614763,32.53555009566301948,0.70527693636719746,-0.00473496831454312,0.00364359910045761,0.70890672679073585,0.00000000000000000,0.00111111111111111,-0.00000000000000000,-0.20000000000000001,1.84000000000000008,9.57000000000000028,0.00000000000000000,0.00000000000000000,11.80732655999999992
2.65007185935974121,3.30907941012384432,46.66082562112361387,32.52921128014493490,0.70533150515863252,-0.00463485245836581,0.00373861655935079,0.70885260013600127,0.00000000000000000,0.00111111111111111,-0.00000000000000000,-0.20000000000000001,1.84000000000000008,9.57000000000000028,0.00000000000000000,0.00000000000000000,11.80732655999999992
2.66011023521423340,3.30713588464520702,46.66288455060166740,32.52830616635569783,0.70528047811360750,-0.00466648514145654,0.00376024922925518,0.70890304812012173,0.00000000000000000,0.00111111111111111,-0.00000000000000000,-0.20000000000000001,1.84000000000000008,9.57000000000000028,0.00000000000000000,0.00000000000000000,11.80732655999999992
2.67026162147521973,3.30642884279706806,46.65579796165825854,32.51776654499686714,0.70529574930590200,-0.00458285714476844,0.00378970421874492,0.70888824335952372,0.00111111111111111,-0.00000000000000000,0.00111111111111111,-0.20000000000000001,1.84000000000000008,9.59999999999999964,0.00000000000000000,0.00000000000000000,11.80403302400000065
2.68019533157348633,3.30453110043222997,46.65021265352783075,32.49121783402631536,0.70528738108951328,-0.00468144449136195,0.00375032449319075,0.70889613429582587,0.00111111111111111,-0.00000000000000000,0.00111111111111111,-0.20000000000000001,1.84000000000000008,9.59999999999999964,0.00000000000000000,0.00000000000000000,11.80403302400000065
2.69013571739196777,3.35974706546522839,46.66957519677401933,32.52706454983479745,0.70533232328186890,-0.00469862286034887,0.00368877370920310,0.70885162737031204,0.00111111111111111,-0.00000000000000000,0.00111111111111111,-0.20000000000000001,1.84000000000000008,9.59999999999999964,0.00000000000000000,0.00000000000000000,11.80403302400000065
2.70011615753173828,3.31478288508203178,46.64189103181865903,32.52148956726563966,0.70532936752268327,-0.00469993370406007,0.00368965402415763,0.70885455517081319,0.00111111111111111,-0.00000000000000000,0.00111111111111111,-0.20000000000000001,1.84000000000000008,9.59999999999999964,0.00000000000000000,0.00000000000000000,11.80403302400000065
2.71008467674255371,3.36428856254553699,46.62429206783121316,32.53806662877394018,0.70533764995242576,-0.00477970166959584,0.00368815874605441,0.70884578823366262,0.00111111111111111,-0.00000000000000000,0.00111111111111111,-0.20000000000000001,1.84000000000000008,9.59999999999999964,0.00000000000000000,0.00000000000000000,11.80403302400000065
2.72011184692382812,3.30803331226189812,46.65524774865371427,32.50325486533166242,0.70530633407477317,-0.00465357418403130,0.00376313743023738,0.70887739289527341,0.00111111111111111,-0.00000000000000000,0.00111111111111111,-0.20000000000000001,1.84000000000000008,9.59999999999999964,0.00000000000000000,0.00000000000000000,11.80403302400000065
2.73023295402526855,3.37992578012407430,46.63667475986486721,32.52123790494929523,0.70526405507786905,-0.00479790288096180,0.00369480051183381,0.70891885374296781,0.00111111111111111,-0.00000000000000000,0.00111111111111111,-0.20000000000000001,1.84000000000000008,9.59999999999999964,0.00000000000000000,0.00000000000000000,11.80403302400000065
2.74013614654541016,3.41198307832886272,46.63327274321505911,32.53866911204564616,0.70527375333134257,-0.00480728322353837,0.00372919512551924,0.70890896171063100,-0.00222222222222222,-0.00000000000000000,-0.00000000000000000,-0.19000000000000000,1.85000000000000009,9.59999999999999964,0.00000000000000000,0.00000000000000000,11.79744595200000035
2.75023317337036133,3.32520818629215498,46.62593283397499277,32.50623533515413754,0.70522616180377551,-0.00472789483736968,0.00388076161352183,0.70895602642704170,-0.00222222222222222,-0.00000000000000000,-0.00000000000000000,-0.19000000000000000,1.85000000000000009,9.59999999999999964,0.00000000000000000,0.00000000000000000,11.79744595200000035
2.76018476486206055,3.33800760931345541,46.63970747296897201,32.54824268951917787,0.70524764781415206,-0.00472060656733216,0.00379613860415080,0.70893515955829189,-0.00222222222222222,-0.00000000000000000,-0.00000000000000000,-0.19000000000000000,1.85000000000000009,9.59999999999999964,0.00000000000000000,0.00000000000000000,11.79744595200000035
2.77033329010009766,3.28278444198402530,46.69054606768159488,32.53126139763318037,0.70528897120791034,-0.00454036093003046,0.00376314576672950,0.70889540198046874,0.00222222222222222,-0.00000000000000000,-0.00222222222222222,-0.19000000000000000,1.85000000000000009,9.58000000000000007,0.00000000000000000,0.00000000000000000,11.79744595200000035
2.78020191192626953,3.36787151698377940,46.62503517052532942,32.52989404584765509,0.70528086590045180,-0.00483399580020838,0.00371281114539499,0.70890178989244390,0.00222222222222222,-0.00000000000000000,-0.00222222222222222,-0.19000000000000000,1.85000000000000009,9.58000000000000007,0.00000000000000000,0.00000000000000000,11.79744595200000035
2.79020786285400391,3.30622925513713151,46.64929046987425210,32.52436085127239807,0.70527033021745478,-0.00472772660588284,0.00368668844118212,0.70891312461008948,0.00222222222222222,-0.00000000000000000,-0.00222222222222222,-0.19000000000000000,1.85000000000000009,9.58000000000000007,0.00000000000000000,0.00000000000000000,11.79744595200000035
2.80019474029541016,3.29449384622522023,46.64573934599141580,32.52377529375439025,0.70525879379989531,-0.00461208420561848,0.00387726256314290,0.70892434665640691,0.00222222222222222,-0.00000000000000000,-0.00222222222222222,-0.19000000000000000,1.85000000000000009,9.58000000000000007,0.00000000000000000,0.00000000000000000,11.79744595200000035
2.81023645401000977,3.31280789276354426,46.64580516745909478,32.52232443506954240,0.70527839653156188,-0.00464085807971182,0.00375082416686039,0.70890533722086091,0.00222222222222222,-0.00000000000000000,-0.00222222222222222,-0.19000000000000000,1.85000000000000009,9.58000000000000007,0.00000000000000000,0.00000000000000000,11.79744595200000035
2.82020449638366699,3.30255800200225025,46.66707565070790764,32.51890898279372522,0.70530843583641756,-0.00462715848460585,0.00370033895576974,0.70887580522539839,0.00222222222222222,-0.00000000000000000,-0.00222222222222222,-0.19000000000000000,1.85000000000000009,9.58000000000000007,0.00000000000000000,0.00000000000000000,11.79744595200000035
2.83019876480102539,3.33784682028742230,46.64585102063432487,32.53047235270984316,0.70530797058016592,-0.00475535129956180,0.00363886357265535,0.70887573801196280,-0.00111111111111111,-0.00222222222222222,-0.00111111111111111,-0.22000000000000000,1.86000000000000010,9.58999999999999986,0.00000000000000000,0.00000000000000000,11.80732655999999992
2.84013938903808594,3.37264658167175790,46.64212684386028940,32.53676336659095369,0.70522994914937209,-0.00481177583786625,0.00368229280333546,0.70895275326058993,-0.00111111111111111,-0.00222222222222222,-0.00111111111111111,-0.22000000000000000,1.86000000000000010,9.58999999999999986,0.00000000000000000,0.00000000000000000,11.80732655999999992
2.85017657279968262,3.30262356362210374,46.64056803212304203,32.51721888533347027,0.70529949204722542,-0.00470597089641362,0.00380069826490986,0.70888365409885645,-0.00111111111111111,-0.00222222222222222,-0.00111111111111111,-0.22000000000000000,1.86000000000000010,9.58999999999999986,0.00000000000000000,0.00000000000000000,11.80732655999999992
2.86011791229248047,3.29206343263337908,46.63145394471600724,32.51397509938291108,0.70531886114362641,-0.00456675869423278,0.00386349873638379,0.70886495343443290,-0.00111111111111111,-0.00222222222222222,-0.00111111111111111,-0.22000000000000000,1.86000000000000010,9.58999999999999986,0.00000000000000000,0.00000000000000000,11.80732655999999992
2.87011289596557617,3.29401377357240577,46.68243231227872769,32.51862750405813784,0.70528675290693599,-0.00453498788983253,0.00377057714087743,0.70889760389414103,0.00000000000000000,-0.00000000000000000,0.00111111111111111,-0.20000000000000001,1.85000000000000009,9.63000000000000078,0.00000000000000000,0.00000000000000000,11.79744595200000035
2.88009381294250488,3.40018989762807067,46.63695278755574947,32.49785061435789402,0.70529966413333567,-0.00484148208317547,0.00366889555263227,0.70888326474114638,0.00000000000000000,-0.00000000000000000,0.00111111111111111,-0.20000000000000001,1.85000000000000009,9.63000000000000078,0.00000000000000000,0.00000000000000000,11.79744595200000035
2.89022612571716309,3.30204501242925241,46.67180785383991548,32.54602620284705239,0.70522681546870636,-0.00464323396605523,0.00373219284560924,0.70895673341803234,0.00000000000000000,-0.00000000000000000,0.00111111111111111,-0.20000000000000001,1.85000000000000009,9.63000000000000078,0.00000000000000000,0.00000000000000000,11.79744595200000035
2.90019631385803223,3.29117515429773411,46.66606332082951525,32.53842150486013196,0.70529392480921349,-0.00460600974896997,0.00375384092563500,0.70889009936640590,0.00000000000000000,-0.00000000000000000,0.00111111111111111,-0.20000000000000001,1.85000000000000009,9.63000000000000078,0.00000000000000000,0.00000000000000000,11.79744595200000035
2.91021418571472168,3.33393300685097804,46.65618161315055801,32.53885345699292486,0.70526610888763641,-0.00470874989843491,0.00374226142752967,0.70891715934112820,0.00000000000000000,-0.00000000000000000,0.00111111111111111,-0.20000000000000001,1.85000000000000009,9.63000000000000078,0.00000000000000000,0.00000000000000000,11.79744595200000035
2.92009758949279785,3.31230611913866246,46.65943390845689009,32.53118986417096892,0.70523837726077609,-0.00465065301495530,0.00377640400643797,0.70894494951152753,0.00000000000000000,-0.00000000000000000,0.00111111111111111,-0.20000000000000001,1.85000000000000009,9.63000000000000078,0.00000000000000000,0.00000000000000000,11.79744595200000035
2.93009495735168457,3.45301280818386624,46.63847361834154981,32.51117908113528188,0.70534445209269037,-0.00489234879067094,0.00354926352110028,0.70883896023979320,0.00000000000000000,-0.00000000000000000,0.00111111111111111,-0.20000000000000001,1.85000000000000009,9.63000000000000078,0.00000000000000000,0.00000000000000000,11.79744595200000035
2.94010233879089355,3.40090796093063963,46.67654024173280192,32.55160685582693247,0.70540454473612635,-0.00468984920362723,0.00355212452223977,0.70878051327011282,0.00000000000000000,-0.00222222222222222,0.00222222222222222,-0.19000000000000000,1.84000000000000008,9.69999999999999929,0.00000000000000000,0.00000000000000000,11.81391363200000022
2.95012474060058594,3.29500450548810520,46.63903341563096205,32.54826001028717286,0.70527760804002837,-0.00465797618645435,0.00381715639854346,0.70890565533941918,0.00000000000000000,-0.00222222222222222,0.00222222222222222,-0.19000000000000000,1.84000000000000008,9.69999999999999929,0.00000000000000000,0.00000000000000000,11.81391363200000022
2.96017074584960938,3.39926189375143784,46.65957995750668630,32.53440587812122686,0.70532848788726943,-0.00475613025194370,0.00370765365135662,0.70885496168404305,-0.00222222222222222,-0.00222222222222222,0.00222222222222222,-0.22000000000000000,1.86000000000000010,9.61999999999999922,0.00000000000000000,0.00000000000000000,11.81720716800000126
2.97010755538940430,3.29553988706059409,46.66865232842602751,32.55255480404932200,0.70524061115744652,-0.00452223504782676,0.00379893459028376,0.70894343770178325,-0.00222222222222222,-0.00222222222222222,0.00222222222222222,-0.22000000000000000,1.86000000000000010,9.61999999999999922,0.00000000000000000,0.00000000000000000,11.81720716800000126
2.98008894920349121,3.39299511160607636,46.65575157149430652,32.55170188587567992,0.70527525360130339,-0.00482832999046873,0.00358827353822527,0.70890805340335572,-0.00222222222222222,-0.00222222222222222,0.00222222222222222,-0.22000000000000000,1.86000000000000010,9.61999999999999922,0.00000000000000000,0.00000000000000000,11.81720716800000126
2.99008965492248535,3.36619855708174143,46.64997943214771681,32.52523690307605619,0.70525856084869409,-0.00479765091235316,0.00371621388796812,0.70892420938326772,-0.00222222222222222,-0.00222222222222222,0.00222222222222222,-0.22000000000000000,1.86000000000000010,9.61999999999999922,0.00000000000000000,0.00000000000000000,11.81720716800000126
3.00010848045349121,3.33415206993214275,46.64459795654949659,32.53938230386559383,0.70527464138884299,-0.00471960387762529,0.00376191912816504,0.70890849446000459,-0.00222222222222222,-0.00222222222222222,0.00222222222222222,-0.22000000000000000,1.86000000000000010,9.61999999999999922,0.00000000000000000,0.00000000000000000,11.81720716800000126
3.01016330718994141,3.41019561478702471,46.67688026264968215,32.57691296954552485,0.70533738804456192,-0.00467968402277245,0.00363584218943389,0.70884698647556965,-0.00222222222222222,-0.00222222222222222,0.00222222222222222,-0.22000000000000000,1.86000000000000010,9.61999999999999922,0.00000000000000000,0.00000000000000000,11.81720716800000126
3.02008938789367676,3.30755293641515991,46.67351444007541517,32.52700955544106165,0.70529200999021746,-0.00459523523330906,0.00370986957679354,0.70889230587221930,0.00000000000000000,-0.00000000000000000,-0.00000000000000000,-0.20000000000000001,1.85000000000000009,9.58000000000000007,0.00000000000000000,0.00000000000000000,11.81720716800000126
3.03009390830993652,3.39428109991483362,46.64085125598158044,32.53128484372325602,0.70528497813058011,-0.00481500772348971,0.00370334953178272,0.70889787736049492,0.00000000000000000,-0.00000000000000000,-0.00000000000000000,-0.20000000000000001,1.85000000000000009,9.58000000000000007,0.00000000000000000,0.00000000000000000,11.81720716800000126
3.04008841514587402,3.36417010953129880,46.65904409472045700,32.52295241656484848,0.70531868540246845,-0.00476626372873766,0.00365272350390141,0.70886493238360004,0.00000000000000000,-0.00000000000000000,-0.00000000000000000,-0.20000000000000001,1.85000000000000009,9.58000000000000007,0.00000000000000000,0.00000000000000000,11.81720716800000126
3.05012011528015137,3.38710059649094219,46.66391706224739977,32.55108337080891800,0.70534220317489238,-0.00478800958562784,0.00358128366491061,0.70884174947015355,0.00000000000000000,-0.00000000000000000,-0.00000000000000000,-0.20000000000000001,1.85000000000000009,9.58000000000000007,0.00000000000000000,0.00000000000000000,11.81720716800000126
3.06018352508544922,3.39146405481701896,46.64704091561461752,32.58287089445610007,0.70520809623215142,-0.00478542014714742,0.00371963278257752,0.70897447421934956,0.00000000000000000,-0.00000000000000000,-0.00000000000000000,-0.20000000000000001,1.85000000000000009,9.58000000000000007,0.00000000000000000,0.00000000000000000,11.81720716800000126
3.07008147239685059,3.34089601172827022,46.67935951476874834,32.52101956791850768,0.70533540472347478,-0.00465318925586200,0.00365384281211136,0.70884904183191622,0.00222222222222222,-0.00333333333333333,0.00111111111111111,-0.17999999999999999,1.85000000000000009,9.59999999999999964,0.00000000000000000,0.00000000000000000,11.80403302400000065
3.08009815216064453,3.37309426886873931,46.68498010091408190,32.51379696057532698,0.70534929223673726,-0.00474188402478600,0.00355983545776449,0.70883511344214811,0.00222222222222222,-0.00333333333333333,0.00111111111111111,-0.17999999999999999,1.85000000000000009,9.59999999999999964,0.00000000000000000,0.00000000000000000,11.80403302400000065
3.09008789062500000,3.39328107448309169,46.64267919532168349,32.54477788660306459,0.70529741676811308,-0.00479881382148908,0.00368716087514783,0.70888569609691976,0.00222222222222222,-0.00333333333333333,0.00111111111111111,-0.17999999999999999,1.85000000000000009,9.59999999999999964,0.00000000000000000,0.00000000000000000,11.80403302400000065
3.10011291503906250,3.32631549005530758,46.62671570408762278,32.50438009000265538,0.70527268887608718,-0.00478019399322040,0.00372707740763944,0.70891021502365070,0.00222222222222222,-0.00333333333333333,0.00111111111111111,-0.17999999999999999,1.85000000000000009,9.59999999999999964,0.00000000000000000,0.00000000000000000,11.80403302400000065
3.11019492149353027,3.38932421000238193,46.65554157235266786,32.58438201668469247,0.70529618478838441,-0.00470387849575249,0.00365598851301797,0.70888771959883667,0.00222222222222222,-0.00333333333333333,0.00111111111111111,-0.17999999999999999,1.85000000000000009,9.59999999999999964,0.00000000000000000,0.00000000000000000,11.80403302400000065
3.12008857727050781,3.32118872944804133,46.65495612219641686,32.54600239817565210,0.70525690458327406,-0.00466045381486007,0.00369657638314256,0.70892687495319406,0.00222222222222222,-0.00333333333333333,0.00111111111111111,-0.17999999999999999,1.85000000000000009,9.59999999999999964,0.00000000000000000,0.00000000000000000,11.80403302400000065
3.13009667396545410,3.40634117992045882,46.65041887605988080,32.54422614078466580,0.70528759761636450,-0.00484948116564046,0.00360201325685839,0.70889555837334639,0.00000000000000000,-0.00000000000000000,-0.00000000000000000,-0.19000000000000000,1.84000000000000008,9.58000000000000007,0.00000000000000000,0.00000000000000000,11.79744595200000035
3.14008784294128418,3.38837090958675091,46.63740820480433058,32.55017416010142739,0.70521438258230751,-0.00483337785214761,0.00362786153682174,0.70896837142305802,0.00000000000000000,-0.00000000000000000,-0.00000000000000000,-0.19000000000000000,1.84000000000000008,9.58000000000000007,0.00000000000000000,0.00000000000000000,11.79744595200000035
3.15009927749633789,3.36429517344388174,46.64556273945722609,32.58812442104447626,0.70519906119618403,-0.00478163646502038,0.00368849579819629,0.70898364934565594,0.00000000000000000,-0.00000000000000000,-0.00000000000000000,-0.19000000000000000,1.84000000000000008,9.58000000000000007,0.00000000000000000,0.00000000000000000,11.79744595200000035
3.16017365455627441,3.41409195737565563,46.67774273395880158,32.58712707170444389,0.70527830300840855,-0.00476975304834824,0.00355266539876288,0.70890559549914867,0.00000000000000000,-0.00000000000000000,-0.00000000000000000,-0.19000000000000000,1.84000000000000008,9.58000000000000007,0.00000000000000000,0.00000000000000000,11.79744595200000035
3.17005324363708496,3.32202300183933241,46.67241556557392101,32.52124306234996709,0.70530119218602172,-0.00465004373564651,0.00366632400402586,0.70888303933902286,-0.00111111111111111,0.00222222222222222,-0.00000000000000000,-0.20000000000000001,1.84000000000000008,9.57000000000000028,0.00000000000000000,0.00000000000000000,11.79415241600000108
3.18008017539978027,3.40476248239768742,46.61915977016642643,32.50990007902787937,0.70524266757595033,-0.00491820681229642,0.00366025408058112,0.70893948515523886,-0.00111111111111111,0.00222222222222222,-0.00000000000000000,-0.20000000000000001,1.84000000000000008,9.57000000000000028,0.00000000000000000,0.00000000000000000,11.79415241600000108
3.19007396697998047,3.41253836977092684,46.63139139023289914,32.53495186681386286,0.70528145263655029,-0.00488921822683061,0.00366245262345730,0.70890108940019880,-0.00111111111111111,0.00222222222222222,-0.00000000000000000,-0.20000000000000001,1.84000000000000008,9.57000000000000028,0.00000000000000000,0.00000000000000000,11.79415241600000108
3.20009231567382812,3.33743975475040955,46.62967155259766372,32.53733020703155887,0.70519678149148968,-0.00474795539691402,0.00379186587397603,0.70898559791210636,-0.00111111111111111,0.00222222222222222,-0.00000000000000000,-0.20000000000000001,1.84000000000000008,9.57000000000000028,0.00000000000000000,0.00000000000000000,11.79415241600000108
3.21008992195129395,3.32652697272348297,46.64960387749928827,32.52234123272956623,0.70526007550969871,-0.00473499456183079,0.00380072792072181,0.70892267574526535,-0.00111111111111111,0.00222222222222222,-0.00000000000000000,-0.20000000000000001,1.84000000000000008,9.57000000000000028,0.00000000000000000,0.00000000000000000,11.79415241600000108
3.22009968757629395,3.34826018849387586,46.65755570731857205,32.54245820544987566,0.70524422554878374,-0.00469551098465926,0.00373131040547259,0.70893907483601637,-0.00111111111111111,0.00222222222222222,-0.00000000000000000,-0.20000000000000001,1.84000000000000008,9.57000000000000028,0.00000000000000000,0.00000000000000000,11.79415241600000108
3.23008561134338379,3.37391967387348046,46.61957294191850565,32.51990602017179555,0.70523534165692692,-0.00484071485561423,0.00376098437072028,0.70894677892934044,0.00000000000000000,0.00111111111111111,-0.00111111111111111,-0.20000000000000001,1.85000000000000009,9.61999999999999922,0.00000000000000000,0.00000000000000000,11.79415241600000108
3.24009227752685547,3.39221999818178332,46.62794897528198135,32.51298140892786392,0.70531613832866669,-0.00475332426596865,0.00375579028287487,0.70886701500416205,0.00000000000000000,0.00111111111111111,-0.00111111111111111,-0.20000000000000001,1.85000000000000009,9.61999999999999922,0.00000000000000000,0.00000000000000000,11.79415241600000108
3.25007057189941406,3.33633092775844764,46.61908147588442830,32.53296590797636867,0.70527903979235118,-0.00474842110830411,0.00379741530931175,0.70890373688077402,0.00000000000000000,0.00111111111111111,-0.00111111111111111,-0.20000000000000001,1.85000000000000009,9.61999999999999922,0.00000000000000000,0.00000000000000000,11.79415241600000108
3.26018500328063965,3.31711722529675157,46.66629206125603702,32.55020679486862889,0.70529338699111055,-0.00469782304350390,0.00370997251564318,0.70889026289630552,0.00000000000000000,0.00111111111111111,-0.00111111111111111,-0.20000000000000001,1.85000000000000009,9.61999999999999922,0.00000000000000000,0.00000000000000000,11.79415241600000108
3.27005457878112793,3.31927226168234668,46.69294982202501387,32.55508760199970908,0.70526088190981950,-0.00461703292519400,0.00372287562006396,0.70892306469169786,-0.28444444444444444,0.00111111111111111,-0.00000000000000000,-0.20000000000000001,1.85000000000000009,9.59999999999999964,0.00000000000000000,0.00000000000000000,11.81391363200000022
3.28007984161376953,3.37520632443348267,46.64788607702462286,32.52207536393424903,0.70524482338053651,-0.00479055712497051,0.00372049895386326,0.70893790104981880,-0.28444444444444444,0.00111111111111111,-0.00000000000000000,-0.20000000000000001,1.85000000000000009,9.59999999999999964,0.00000000000000000,0.00000000000000000,11.81391363200000022
3.29007744789123535,3.37253818045300724,46.65230952851585045,32.51802213525075302,0.70528351083448637,-0.00482370366684059,0.00366164338394834,0.70889949470686187,-0.28444444444444444,0.00111111111111111,-0.00000000000000000,-0.20000000000000001,1.85000000000000009,9.59999999999999964,0.00000000000000000,0.00000000000000000,11.81391363200000022
3.30007219314575195,3.31470742037741806,46.63405547071584323,32.56781049603712574,0.70520038260390905,-0.00465811980147917,0.00383096141032318,0.70898240177728522,-0.28444444444444444,0.00111111111111111,-0.00000000000000000,-0.20000000000000001,1.85000000000000009,9.59999999999999964,0.00000000000000000,0.00000000000000000,11.81391363200000022
3.31013035774230957,3.36148065366238180,46.65069492432848364,32.57177204734360743,0.70524851195190474,-0.00472468130813809,0.00372673499639716,0.70893464100890613,-0.28444444444444444,0.00111111111111111,-0.00000000000000000,-0.20000000000000001,1.85000000000000009,9.59999999999999964,0.00000000000000000,0.00000000000000000,11.81391363200000022
3.32014727592468262,3.31143968029873514,46.68953200886424071,32.53112338876110954,0.70528991729452706,-0.00461858763585823,0.00373687143955082,0.70889409434891848,0.00222222222222222,-0.00222222222222222,-0.00000000000000000,-0.20000000000000001,1.84000000000000008,9.57000000000000028,0.00000000000000000,0.00000000000000000,11.81391363200000022
3.33020114898681641,3.39876824954027867,46.65372829392467935,32.52982021716905336,0.70530077712764427,-0.00478083831261551,0.00366932498634552,0.70888256673606642,0.00222222222222222,-0.00222222222222222,-0.00000000000000000,-0.20000000000000001,1.84000000000000008,9.57000000000000028,0.00000000000000000,0.00000000000000000,11.81391363200000022
3.34021687507629395,3.33457561748389386,46.66764267662059495,32.51346378032197038,0.70528426981976478,-0.00466397136924657,0.00370843852710337,0.70889956524147968,0.00222222222222222,-0.00222222222222222,-0.00000000000000000,-0.20000000000000001,1.84000000000000008,9.57000000000000028,0.00000000000000000,0.00000000000000000,11.81391363200000022
3.35017800331115723,3.27915892724268820,46.66719237036726753,32.52906301458963156,0.70521741595376519,-0.00459400038363122,0.00378191306814475,0.70896614060864349,0.00222222222222222,-0.00222222222222222,-0.00000000000000000,-0.20000000000000001,1.84000000000000008,9.57000000000000028,0.00000000000000000,0.00000000000000000,11.81391363200000022
3.36020064353942871,3.33297093965711833,46.64499875027522791,32.53862960282054217,0.70525141400294367,-0.00478587421270686,0.00374499843637487,0.70893124733050150,0.00222222222222222,-0.00222222222222222,-0.00000000000000000,-0.20000000000000001,1.84000000000000008,9.57000000000000028,0.00000000000000000,0.00000000000000000,11.81391363200000022
3.37016606330871582,3.34110416635472163,46.64893272740111030,32.51102220494107797,0.70528860255100567,-0.00473149964585322,0.00378100881542325,0.70889442372971767,-0.00111111111111111,0.28444444444444444,-0.00000000000000000,-0.20999999999999999,1.86000000000000010,9.59999999999999964,0.00000000000000000,0.00000000000000000,11.82050070400000052
3.38018870353698730,3.32697744113057547,46.64432965509189444,32.51210488387928166,0.70530527324917036,-0.00476380974118415,0.00369125076862463,0.70887809411169300,-0.00111111111111111,0.28444444444444444,-0.00000000000000000,-0.20999999999999999,1.86000000000000010,9.59999999999999964,0.00000000000000000,0.00000000000000000,11.82050070400000052
3.39015436172485352,3.33610862520237594,46.58515808617588050,32.48259985511538162,0.70518275683683374,-0.00482730137978343,0.00389149975388836,0.70899847168457097,-0.00111111111111111,0.28444444444444444,-0.00000000000000000,-0.20999999999999999,1.86000000000000010,9.59999999999999964,0.00000000000000000,0.00000000000000000,11.82050070400000052
3.40016674995422363,3.26259913160060000,46.62742971295214289,32.51587398647750859,0.70522729161396858,-0.00469661496045503,0.00388604026555001,0.70895508155439158,-0.00111111111111111,0.28444444444444444,-0.00000000000000000,-0.20999999999999999,1.86000000000000010,9.59999999999999964,0.00000000000000000,0.00000000000000000,11.82050070400000052
3.41016125679016113,3.30203294625884780,46.67031356720455193,32.56659031797426707,0.70527902449121171,-0.00466456210064642,0.00372057043764771,0.70890471632565144,-0.00111111111111111,0.28444444444444444,-0.00000000000000000,-0.20999999999999999,1.86000000000000010,9.59999999999999964,0.00000000000000000,0.00000000000000000,11.82050070400000052
3.42013788223266602,3.30974740486731767,46.68014382458903810,32.51862719251745659,0.70527239327995983,-0.00463085045963553,0.00375625431225448,0.70891134640004205,0.00000000000000000,0.00111111111111111,-0.00222222222222222,-0.20000000000000001,1.83000000000000007,9.58000000000000007,0.00000000000000000,0.00000000000000000,11.79085888000000004
3.43007683753967285,3.36187359963609822,46.63578010070531832,32.55349254806483827,0.70523240927505826,-0.00472833114824774,0.00378777680023611,0.70895031175644496,0.00000000000000000,0.00111111111111111,-0.00222222222222222,-0.20000000000000001,1.83000000000000007,9.58000000000000007,0.00000000000000000,0.00000000000000000,11.79085888000000004
3.44011878967285156,3.36109313563479972,46.63538615851182811,32.52576432928546524,0.70532167515659494,-0.00471039451178841,0.00375783093607886,0.70886178162212532,0.00000000000000000,0.00111111111111111,-0.00222222222222222,-0.20000000000000001,1.83000000000000007,9.58000000000000007,0.00000000000000000,0.00000000000000000,11.79085888000000004
3.45016336441040039,3.31530573518894167,46.59493691066441556,32.49120535275167043,0.70523490202271566,-0.00479749663753414,0.00384593821655068,0.70894705426728299,0.00000000000000000,0.00111111111111111,-0.00222222222222222,-0.20000000000000001,1.83000000000000007,9.58000000000000007,0.00000000000000000,0.00000000000000000,11.79085888000000004
