t,x,y,z,q0,q1,q2,q3,wx,wy,wz,ax,ay,az,dutyR,dutyL,Vbatt
0.00000000000000000,-66.18942137607122334,70.52337751613676176,32.22459907421681891,0.10438609749014452,-0.64908081232952131,0.60209034785033722,0.45308371714496731,0.00000000000000000,0.00000000000000000,0.00000000000000000,0.00000000000000000,0.00000000000000000,0.00000000000000000,0.00000000000000000,0.00000000000000000,0.00000000000000000
0.01007986068725586,-66.18942137607122334,70.52337751613676176,32.22459907421681891,0.67728508443104163,-0.00472603736953175,0.00187918632438683,0.73570309747667684,0.00000000000000000,0.00000000000000000,0.00000000000000000,0.00000000000000000,0.00000000000000000,0.00000000000000000,0.00000000000000000,0.00000000000000000,0.00000000000000000
0.02009177207946777,-66.25218646844909642,70.50546858410662310,32.15143158675068236,0.67722228373930071,-0.00458795452814435,0.00209903832569621,0.73576118619989794,0.00000000000000000,0.00000000000000000,0.00000000000000000,0.00000000000000000,0.00000000000000000,0.00000000000000000,0.00000000000000000,0.00000000000000000,0.00000000000000000
0.03002548217773438,-66.18251931353243833,70.54010135327359876,32.20720806752623133,0.67728659784679679,-0.00476349411650115,0.00175707230967960,0.73570176443842494,0.00000000000000000,0.00000000000000000,0.00000000000000000,0.00000000000000000,0.00000000000000000,0.00000000000000000,0.00000000000000000,0.00000000000000000,0.00000000000000000
0.04002785682678223,-66.19902989189237985,70.52483747704064854,32.21595173000326184,0.67734078023116573,-0.00465825035714091,0.00187844023067292,0.73565225453453564,0.00000000000000000,0.00000000000000000,0.00000000000000000,0.00000000000000000,0.00000000000000000,0.00000000000000000,0.00000000000000000,0.00000000000000000,0.00000000000000000
0.05002307891845703,-66.15635816838648964,70.53468128958439820,32.21461883718975372,0.67734039569493154,-0.00465093535185070,0.00184043346439427,0.73565275093949745,0.00000000000000000,0.00000000000000000,0.00000000000000000,0.00000000000000000,0.00000000000000000,0.00000000000000000,0.00000000000000000,0.00000000000000000,0.00000000000000000
0.05999326705932617,-66.19565786598063539,70.53406022559882160,32.20568317608939424,0.67722809831776032,-0.00478814649840184,0.00172664452341034,0.73575552678910239,0.00000000000000000,0.00000000000000000,0.00000000000000000,0.00000000000000000,0.00000000000000000,0.00000000000000000,0.00000000000000000,0.00000000000000000,0.00000000000000000
0.07012414932250977,-66.16544430537423693,70.55173939676542716,32.25367353161979622,0.67730114562407884,-0.00467938998318869,0.00172659610022210,0.73568898341051903,-0.28444444444444444,-0.00333333333333333,-0.00000000000000000,-0.17999999999999999,1.81000000000000005,9.59999999999999964,0.00000000000000000,0.00000000000000000,11.72498816000000055
0.08013439178466797,-66.14090482409200433,70.57678442102877625,32.23405812820048055,0.67731399707276840,-0.00474145708963537,0.00167712934552745,0.73567686873459304,-0.28444444444444444,-0.00333333333333333,-0.00000000000000000,-0.17999999999999999,1.81000000000000005,9.59999999999999964,0.00000000000000000,0.00000000000000000,11.72498816000000055
0.09007310867309570,-66.18990371588282073,70.53005364196026505,32.19558346706944008,0.67729076824585777,-0.00470267975364023,0.00184758487435424,0.73569809465717850,-0.28444444444444444,-0.00333333333333333,-0.00000000000000000,-0.17999999999999999,1.81000000000000005,9.59999999999999964,0.00000000000000000,0.00000000000000000,11.72498816000000055
0.10004830360412598,-66.14243880220884364,70.50818175741510174,32.23158036161552786,0.67730672171670336,-0.00472313903257504,0.00181840826205050,0.73568334904797428,-0.28444444444444444,-0.00333333333333333,-0.00000000000000000,-0.17999999999999999,1.81000000000000005,9.59999999999999964,0.00000000000000000,0.00000000000000000,11.72498816000000055
0.11005711555480957,-66.19894735720548340,70.54757463299812059,32.21603381915699060,0.67725601894054011,-0.00465391758388844,0.00181684312099773,0.73573047030893524,-0.28444444444444444,-0.00333333333333333,-0.00000000000000000,-0.17999999999999999,1.81000000000000005,9.59999999999999964,0.00000000000000000,0.00000000000000000,11.72498816000000055
0.12016153335571289,-66.19110843282676626,70.52182798554537158,32.24463476553653862,0.67725569262890561,-0.00471883770079764,0.00184124298972029,0.73573029650596011,-0.28444444444444444,-0.00333333333333333,-0.00000000000000000,-0.17999999999999999,1.81000000000000005,9.59999999999999964,0.00000000000000000,0.00000000000000000,11.72498816000000055
0.13012862205505371,-66.18316431336107541,70.52024094094676343,32.21241319509623224,0.67722936539511980,-0.00481612369498210,0.00180731643951287,0.73575398415935589,-0.28444444444444444,-0.00333333333333333,-0.00000000000000000,-0.17999999999999999,1.81000000000000005,9.59999999999999964,0.00000000000000000,0.00000000000000000,11.72498816000000055
0.14013338088989258,-66.18929611364789878,70.52378850775286878,32.21783139232977788,0.67726117110487905,-0.00474359893859227,0.00177893697879268,0.73572524747080881,0.00111111111111111,-0.00000000000000000,-0.00111111111111111,-0.17999999999999999,1.83000000000000007,9.58999999999999986,0.00000000000000000,0.00000000000000000,11.72498816000000055
0.15011572837829590,-66.17702921232380220,70.52839490314623561,32.22311504633362489,0.67728040110940546,-0.00472956661447326,0.00178048341729055,0.73570763170672815,0.00111111111111111,-0.00000000000000000,-0.00111111111111111,-0.17999999999999999,1.83000000000000007,9.58999999999999986,0.00000000000000000,0.00000000000000000,11.72498816000000055
0.16012239456176758,-66.17272750868463049,70.57899022341298689,32.23067999831643959,0.67725199454448615,-0.00472265761033557,0.00170555640584545,0.73573400320221516,0.00111111111111111,-0.00000000000000000,-0.00111111111111111,-0.17999999999999999,1.83000000000000007,9.58999999999999986,0.00000000000000000,0.00000000000000000,11.72498816000000055
0.17013168334960938,-66.20244420859096124,70.55482686452704399,32.26156393414832735,0.67724464523220573,-0.00473337547748334,0.00175443404265877,0.73574058446036716,0.00000000000000000,-0.00000000000000000,0.00111111111111111,-0.20000000000000001,1.80000000000000004,9.65000000000000036,0.00000000000000000,0.00000000000000000,11.71181401599999994
0.18012619018554688,-66.21323519221267873,70.53833991301389972,32.19360454231485136,0.67721532167564402,-0.00471467319347086,0.00179654100205190,0.73576759400293013,0.00000000000000000,-0.00000000000000000,0.00111111111111111,-0.20000000000000001,1.80000000000000004,9.65000000000000036,0.00000000000000000,0.00000000000000000,11.71181401599999994
0.19008064270019531,-66.21108699027458044,70.52939910548276714,32.21221173075442579,0.67726423792769774,-0.00467689155125210,0.00186923812360861,0.73572262752919981,0.00000000000000000,-0.00000000000000000,0.00111111111111111,-0.20000000000000001,1.80000000000000004,9.65000000000000036,0.00000000000000000,0.00000000000000000,11.71181401599999994
0.20006155967712402,-66.23729993625211421,70.52288020957237791,32.20216126360275410,0.67725055434494841,-0.00463873600332953,0.00193647541415567,0.73573529127718318,0.00000000000000000,-0.00000000000000000,0.00111111111111111,-0.20000000000000001,1.80000000000000004,9.65000000000000036,0.00000000000000000,0.00000000000000000,11.71181401599999994
0.20999836921691895,-66.24360756897793578,70.51564163631098836,32.22771381124825751,0.67722479505091648,-0.00467922760753422,0.00187748330803175,0.73575889858952370,0.00000000000000000,-0.00000000000000000,0.00111111111111111,-0.20000000000000001,1.80000000000000004,9.65000000000000036,0.00000000000000000,0.00000000000000000,11.71181401599999994
0.22012352943420410,-66.24285625066745808,70.51795822288440263,32.21454002753583978,0.67723629653308837,-0.00464569310742099,0.00197586758249942,0.73574826682840011,0.00000000000000000,-0.00000000000000000,0.00111111111111111,-0.20000000000000001,1.80000000000000004,9.65000000000000036,0.00000000000000000,0.00000000000000000,11.71181401599999994
0.23002862930297852,-66.17990387975119404,70.53277236310150045,32.20258769248355435,0.67726189279840077,-0.00476341619319647,0.00181581739892297,0.73572436498764393,0.00000000000000000,0.00111111111111111,0.00222222222222222,-0.17999999999999999,1.82000000000000006,9.58000000000000007,0.00000000000000000,0.00000000000000000,11.72169462400000128
0.24000811576843262,-66.18180456286977176,70.53124964148464926,32.25272609868031282,0.67725679713161668,-0.00469620998800874,0.00178514215082228,0.73572956282745161,0.00000000000000000,0.00111111111111111,0.00222222222222222,-0.17999999999999999,1.82000000000000006,9.58000000000000007,0.00000000000000000,0.00000000000000000,11.72169462400000128
0.25000643730163574,-66.20284691867288984,70.53956787364846548,32.24269189961514570,0.67727461209473516,-0.00464397871455755,0.00185231418437805,0.73571332882161833,0.00000000000000000,0.00111111111111111,0.00222222222222222,-0.17999999999999999,1.82000000000000006,9.58000000000000007,0.00000000000000000,0.00000000000000000,11.72169462400000128
0.25999021530151367,-66.18425081304030755,70.54501743926647350,32.24246572491306750,0.67726458636294973,-0.00472680592132164,0.00178714965019439,0.73572219176842302,0.00000000000000000,0.00111111111111111,0.00222222222222222,-0.17999999999999999,1.82000000000000006,9.58000000000000007,0.00000000000000000,0.00000000000000000,11.72169462400000128
0.27006506919860840,-66.18467356247677458,70.52186245563673594,32.24434315075735924,0.67726009272867571,-0.00470251179911109,0.00178059400032058,0.73572649990667804,0.00000000000000000,0.00111111111111111,0.00222222222222222,-0.17999999999999999,1.82000000000000006,9.58000000000000007,0.00000000000000000,0.00000000000000000,11.72169462400000128
0.28003191947937012,-66.08013489877684776,70.56020512086615781,32.25803762398091123,0.67729311685224292,-0.00487835202309701,0.00156533331810001,0.73569544329003178,0.00000000000000000,-0.00000000000000000,0.00111111111111111,-0.19000000000000000,1.81000000000000005,9.60999999999999943,0.00000000000000000,0.00000000000000000,11.72828169599999981
0.29001188278198242,-66.16084861031127673,70.54969381665462436,32.25229458618336054,0.67728835920557429,-0.00473001102253382,0.00176258789465684,0.73570034576875232,0.00000000000000000,-0.00000000000000000,0.00111111111111111,-0.19000000000000000,1.81000000000000005,9.60999999999999943,0.00000000000000000,0.00000000000000000,11.72828169599999981
0.30005335807800293,-66.18979959658969392,70.52544880436944652,32.22506041495426388,0.67730300476756478,-0.00469556173960327,0.00178095360955862,0.73568703919330991,0.00000000000000000,-0.00000000000000000,0.00111111111111111,-0.19000000000000000,1.81000000000000005,9.60999999999999943,0.00000000000000000,0.00000000000000000,11.72828169599999981
0.31010890007019043,-66.18360938445252373,70.57248637612119069,32.21897633583257914,0.67723839340111469,-0.00473869963453783,0.00176387407984999,0.73574628234023809,0.00000000000000000,-0.00000000000000000,0.00111111111111111,-0.19000000000000000,1.81000000000000005,9.60999999999999943,0.00000000000000000,0.00000000000000000,11.72828169599999981
0.32008647918701172,-66.20500633573243476,70.55285529291877822,32.20520670773447591,0.67727374634988524,-0.00465726876045994,0.00187881431910827,0.73571397459178267,0.00000000000000000,-0.00000000000000000,0.00111111111111111,-0.19000000000000000,1.81000000000000005,9.60999999999999943,0.00000000000000000,0.00000000000000000,11.72828169599999981
0.33007216453552246,-66.20035874774106333,70.53275391025742636,32.20696151003053842,0.67723242494680636,-0.00468704151475119,0.00180542370362121,0.73575200624106873,0.00000000000000000,-0.00000000000000000,-0.00222222222222222,-0.17999999999999999,1.81000000000000005,9.65000000000000036,0.00000000000000000,0.00000000000000000,11.71181401599999994
0.34007787704467773,-66.19378091174711187,70.52023674813909793,32.20310111602149306,0.67729780616800439,-0.00466051346341711,0.00188780079580862,0.73569178164664906,0.00000000000000000,-0.00000000000000000,-0.00222222222222222,-0.17999999999999999,1.81000000000000005,9.65000000000000036,0.00000000000000000,0.00000000000000000,11.71181401599999994
0.35012173652648926,-66.16864272087214260,70.48824228316181006,32.21310248924439890,0.67732827851272770,-0.00469594923189669,0.00196604852314161,0.73566329651614437,0.00000000000000000,-0.00000000000000000,-0.00222222222222222,-0.17999999999999999,1.81000000000000005,9.65000000000000036,0.00000000000000000,0.00000000000000000,11.71181401599999994
0.36022591590881348,-66.18951040045256207,70.49904046072906283,32.20855143973063406,0.67726317309657835,-0.00470513362890201,0.00192430735952044,0.73572328570317436,0.00000000000000000,-0.00000000000000000,-0.00222222222222222,-0.17999999999999999,1.81000000000000005,9.65000000000000036,0.00000000000000000,0.00000000000000000,11.71181401599999994
0.37008166313171387,-66.22889375232320219,70.51407169357273119,32.19838424377285691,0.67728123372609195,-0.00461379172130044,0.00196659600795396,0.73570712642229930,0.00000000000000000,-0.00000000000000000,-0.00222222222222222,-0.17999999999999999,1.81000000000000005,9.65000000000000036,0.00000000000000000,0.00000000000000000,11.71181401599999994
0.38012957572937012,-66.14066316442720961,70.52891141436357714,32.24073469845056650,0.67729579154747321,-0.00477509117565637,0.00172282018748318,0.73569330644430042,0.00000000000000000,-0.00000000000000000,-0.00222222222222222,-0.17999999999999999,1.81000000000000005,9.65000000000000036,0.00000000000000000,0.00000000000000000,11.71181401599999994
0.39007306098937988,-66.17747179421250792,70.49625010955408300,32.19429736334759440,0.67730670187016384,-0.00464678561201491,0.00197149608258611,0.73568345923259237,0.00222222222222222,0.00111111111111111,-0.00000000000000000,-0.17999999999999999,1.81000000000000005,9.58000000000000007,0.00000000000000000,0.00000000000000000,11.73157523200000085
0.40009856224060059,-66.18482606431381043,70.53463690598715630,32.22068976344197466,0.67731603908620275,-0.00468843814086049,0.00187771332241834,0.73567484389304472,0.00222222222222222,0.00111111111111111,-0.00000000000000000,-0.17999999999999999,1.81000000000000005,9.58000000000000007,0.00000000000000000,0.00000000000000000,11.73157523200000085
0.41007828712463379,-66.16354117139698587,70.54683424477589426,32.22428669309935856,0.67731049910352092,-0.00460832708007337,0.00185577556068908,0.73568050621362202,0.00222222222222222,0.00111111111111111,-0.00000000000000000,-0.17999999999999999,1.81000000000000005,9.58000000000000007,0.00000000000000000,0.00000000000000000,11.73157523200000085
0.42010545730590820,-66.13669060311970327,70.55668271891795484,32.25833012139188583,0.67730966885668842,-0.00467081465070918,0.00172517042198695,0.73568119437073876,0.00000000000000000,-0.00222222222222222,-0.00111111111111111,-0.17999999999999999,1.81000000000000005,9.60999999999999943,0.00000000000000000,0.00000000000000000,11.73157523200000085
0.43002533912658691,-66.13100002258202892,70.52907739477294058,32.19153332822311597,0.67732292117061310,-0.00474752707876503,0.00182932109238471,0.73566825065914387,0.00000000000000000,-0.00222222222222222,-0.00111111111111111,-0.17999999999999999,1.81000000000000005,9.60999999999999943,0.00000000000000000,0.00000000000000000,11.73157523200000085
0.44002532958984375,-66.12456611137641005,70.56842462090445167,32.22640377751843488,0.67738818029378922,-0.00460644756102382,0.00179367669193707,0.73560914660100662,0.00000000000000000,-0.00222222222222222,-0.00111111111111111,-0.17999999999999999,1.81000000000000005,9.60999999999999943,0.00000000000000000,0.00000000000000000,11.73157523200000085
0.45003461837768555,-66.15060534522423552,70.49807988157125749,32.21480409461970851,0.67736864268969010,-0.00464333201591208,0.00189812850142227,0.73562664339779649,0.00000000000000000,-0.00222222222222222,-0.00111111111111111,-0.17999999999999999,1.81000000000000005,9.60999999999999943,0.00000000000000000,0.00000000000000000,11.73157523200000085
0.46004700660705566,-66.16985730137348298,70.54423332061621466,32.22318446763208755,0.67734469173527734,-0.00460175628310497,0.00184868191118280,0.73564908400156703,0.00000000000000000,-0.00222222222222222,-0.00111111111111111,-0.17999999999999999,1.81000000000000005,9.60999999999999943,0.00000000000000000,0.00000000000000000,11.73157523200000085
0.47011065483093262,-66.23385595624820610,70.52444597524048220,32.21559880011729859,0.67724337055620965,-0.00462116850588734,0.00191075794771970,0.73574208174017763,0.00000000000000000,-0.00222222222222222,-0.00111111111111111,-0.17999999999999999,1.81000000000000005,9.60999999999999943,0.00000000000000000,0.00000000000000000,11.73157523200000085
0.48003172874450684,-66.17604359455133078,70.53213717642535130,32.21310546955847798,0.67727444228686096,-0.00476569258940515,0.00176926872164336,0.73571291118707116,-0.00111111111111111,0.00111111111111111,-0.00111111111111111,-0.17000000000000001,1.81000000000000005,9.60999999999999943,0.00000000000000000,0.00000000000000000,11.72498816000000055
0.49002599716186523,-66.17773862294184539,70.53703751199458338,32.22423519142021320,0.67732097848459161,-0.00458839469047559,0.00187132666900204,0.73567094334038885,-0.00111111111111111,0.00111111111111111,-0.00111111111111111,-0.17000000000000001,1.81000000000000005,9.60999999999999943,0.00000000000000000,0.00000000000000000,11.72498816000000055
0.50002741813659668,-66.16139040286057593,70.54445619165036874,32.23652691564941364,0.67734598447565919,-0.00461759584739976,0.00183608405799053,0.73564782601365886,-0.00111111111111111,0.00111111111111111,-0.00111111111111111,-0.17000000000000001,1.81000000000000005,9.60999999999999943,0.00000000000000000,0.00000000000000000,11.72498816000000055
0.51000380516052246,-66.08159158293922530,70.58134608628073181,32.27368194134837864,0.67734621028630315,-0.00470974428850017,0.00159815121320855,0.73564758929273943,-0.00111111111111111,0.00111111111111111,-0.00111111111111111,-0.17000000000000001,1.81000000000000005,9.60999999999999943,0.00000000000000000,0.00000000000000000,11.72498816000000055
0.52011132240295410,-66.14048149180784719,70.54479962947276306,32.22815027008061151,0.67734759302761371,-0.00468168759422927,0.00181473104795398,0.73564599283364007,-0.00111111111111111,0.00111111111111111,-0.00111111111111111,-0.17000000000000001,1.81000000000000005,9.60999999999999943,0.00000000000000000,0.00000000000000000,11.72498816000000055
0.53002405166625977,-66.12426422410526072,70.54215660194542181,32.22309140304728459,0.67729856537986766,-0.00475376274967151,0.00171378215213402,0.73569091201728731,-0.00111111111111111,0.00111111111111111,-0.00111111111111111,-0.17000000000000001,1.81000000000000005,9.60999999999999943,0.00000000000000000,0.00000000000000000,11.72498816000000055
0.54003643989562988,-66.11552359536425172,70.52305199962457039,32.21259932546845306,0.67738965543923046,-0.00464968743230090,0.00185017924766350,0.73560737621876382,-0.00111111111111111,-0.00111111111111111,-0.00333333333333333,-0.20000000000000001,1.82000000000000006,9.61999999999999922,0.00000000000000000,0.00000000000000000,11.72828169599999981
0.55006408691406250,-66.15498750889605617,70.53593600387223717,32.22347281712306000,0.67735049334184128,-0.00466342106058728,0.00183899586087117,0.73564337811727720,-0.00111111111111111,-0.00111111111111111,-0.00333333333333333,-0.20000000000000001,1.82000000000000006,9.61999999999999922,0.00000000000000000,0.00000000000000000,11.72828169599999981
0.56011700630187988,-66.13337224113783464,70.55110821923223341,32.25107291144856703,0.67733492865367695,-0.00469917059416556,0.00176629475065052,0.73565765980128184,-0.00111111111111111,-0.00111111111111111,-0.00333333333333333,-0.20000000000000001,1.82000000000000006,9.61999999999999922,0.00000000000000000,0.00000000000000000,11.72828169599999981
0.57010698318481445,-66.11018461282624514,70.56533520156720840,32.21691468836649364,0.67733281117246147,-0.00470758201329558,0.00176097787381535,0.73565956837230539,-0.00111111111111111,-0.00111111111111111,-0.00333333333333333,-0.20000000000000001,1.82000000000000006,9.61999999999999922,0.00000000000000000,0.00000000000000000,11.72828169599999981
0.58002591133117676,-66.15783935458486553,70.52905522524515902,32.19634711988062037,0.67730425784679416,-0.00474672367846141,0.00181768500624589,0.73568546739632001,-0.00111111111111111,-0.00111111111111111,-0.00333333333333333,-0.20000000000000001,1.82000000000000006,9.61999999999999922,0.00000000000000000,0.00000000000000000,11.72828169599999981
0.59002447128295898,-66.18078514418043312,70.53453392693077717,32.22095312040644188,0.67729785505851214,-0.00468572391460023,0.00182728462836134,0.73569172929660009,-0.00222222222222222,-0.28333333333333333,0.00111111111111111,-0.17999999999999999,1.83000000000000007,9.57000000000000028,0.00000000000000000,0.00000000000000000,11.70852048000000067
0.60002732276916504,-66.22951969045506360,70.49966858852678797,32.19328771117393018,0.67726084474650672,-0.00460241107936873,0.00198191282130840,0.73572592587666330,-0.00222222222222222,-0.28333333333333333,0.00111111111111111,-0.17999999999999999,1.83000000000000007,9.57000000000000028,0.00000000000000000,0.00000000000000000,11.70852048000000067
0.61009001731872559,-66.15152208444273185,70.54139085546161425,32.23611757316110271,0.67727916885723372,-0.00476110609035197,0.00175410632224931,0.73570862602790033,-0.00222222222222222,-0.28333333333333333,0.00111111111111111,-0.17999999999999999,1.83000000000000007,9.57000000000000028,0.00000000000000000,0.00000000000000000,11.70852048000000067
0.62012338638305664,-66.15761613056569956,70.54363705408924545,32.24284848386975710,0.67730773960078627,-0.00461940732538310,0.00181248322593444,0.73568308520543735,-0.00222222222222222,-0.28333333333333333,0.00111111111111111,-0.17999999999999999,1.83000000000000007,9.57000000000000028,0.00000000000000000,0.00000000000000000,11.70852048000000067
0.63003349304199219,-66.11462889720051805,70.56651177250843432,32.24092695469451542,0.67729365820252396,-0.00480955955275059,0.00160245204792469,0.73569531794281884,-0.00111111111111111,0.00222222222222222,-0.00000000000000000,-0.17999999999999999,1.80000000000000004,9.59999999999999964,0.00000000000000000,0.00000000000000000,11.70193340800000037
0.64003276824951172,-66.16578872425554891,70.53845228024421488,32.22154060763299555,0.67731173973745784,-0.00466020600858993,0.00182596235784271,0.73567911181115064,-0.00111111111111111,0.00222222222222222,-0.00000000000000000,-0.17999999999999999,1.80000000000000004,9.59999999999999964,0.00000000000000000,0.00000000000000000,11.70193340800000037
0.64999389648437500,-66.11794943288430204,70.52700137591450869,32.22253960910788351,0.67733886963153400,-0.00477146463642351,0.00175094944573279,0.73565360257905155,-0.00111111111111111,0.00222222222222222,-0.00000000000000000,-0.17999999999999999,1.80000000000000004,9.59999999999999964,0.00000000000000000,0.00000000000000000,11.70193340800000037
0.66003584861755371,-66.15723923073703361,70.53967392943754078,32.19017554785272495,0.67727661898324343,-0.00471741543824224,0.00179987479535084,0.73571114428213646,-0.00111111111111111,0.00222222222222222,-0.00000000000000000,-0.17999999999999999,1.80000000000000004,9.59999999999999964,0.00000000000000000,0.00000000000000000,11.70193340800000037
0.67007684707641602,-66.11920884362645268,70.53302072794915034,32.25051683637855859,0.67730495787547451,-0.00477750004800099,0.00171513735564021,0.73568486992355930,-0.00111111111111111,0.00222222222222222,-0.00000000000000000,-0.17999999999999999,1.80000000000000004,9.59999999999999964,0.00000000000000000,0.00000000000000000,11.70193340800000037
0.68002557754516602,-66.19965819910990490,70.53468411950127859,32.21610801293174831,0.67725671525588205,-0.00473959929491916,0.00179900901287078,0.73572932618314757,0.00000000000000000,-0.00000000000000000,-0.00000000000000000,-0.17999999999999999,1.81000000000000005,9.58999999999999986,0.00000000000000000,0.00000000000000000,11.71510755200000098
0.69002461433410645,-66.20664342940770553,70.52818713002876905,32.20895675078456577,0.67728036669365987,-0.00468357908717589,0.00184801177997066,0.73570779106293072,0.00000000000000000,-0.00000000000000000,-0.00000000000000000,-0.17999999999999999,1.81000000000000005,9.58999999999999986,0.00000000000000000,0.00000000000000000,11.71510755200000098
0.70002818107604980,-66.21352869503529348,70.52781179800156508,32.22627205253992599,0.67723550439210922,-0.00470543444894004,0.00179145586893556,0.73574908845562392,0.00000000000000000,-0.00000000000000000,-0.00000000000000000,-0.17999999999999999,1.81000000000000005,9.58999999999999986,0.00000000000000000,0.00000000000000000,11.71510755200000098
0.71002769470214844,-66.24890848615443417,70.52616325185753965,32.17200131493169835,0.67725364951252509,-0.00459144875289280,0.00195762390187843,0.73573268279244886,0.00000000000000000,-0.00000000000000000,-0.00000000000000000,-0.17999999999999999,1.81000000000000005,9.58999999999999986,0.00000000000000000,0.00000000000000000,11.71510755200000098
0.72012233734130859,-66.22063909023846406,70.50917526150374215,32.17594594352960513,0.67726183079684688,-0.00462242410157085,0.00199113205769066,0.73572486782373836,0.00000000000000000,-0.00000000000000000,-0.00000000000000000,-0.17999999999999999,1.81000000000000005,9.58999999999999986,0.00000000000000000,0.00000000000000000,11.71510755200000098
0.73003149032592773,-66.25727119209410887,70.48262734113124850,32.15425614241151919,0.67720015664256106,-0.00471354945469238,0.00195227974161043,0.73578116237006197,-0.00111111111111111,0.00111111111111111,0.00222222222222222,-0.17999999999999999,1.82000000000000006,9.58999999999999986,0.00000000000000000,0.00000000000000000,11.71181401599999994
0.74002885818481445,-66.25236739372705586,70.54968080484292159,32.17425802932046963,0.67728034553477512,-0.00463031526707992,0.00185395851564034,0.73570813273379376,-0.00111111111111111,0.00111111111111111,0.00222222222222222,-0.17999999999999999,1.82000000000000006,9.58999999999999986,0.00000000000000000,0.00000000000000000,11.71181401599999994
0.75017237663269043,-66.28968967610107654,70.49825518643024225,32.13287496510103125,0.67723012174974662,-0.00459670183532413,0.00216134748050749,0.73575373672454325,-0.00111111111111111,0.00111111111111111,0.00222222222222222,-0.17999999999999999,1.82000000000000006,9.58999999999999986,0.00000000000000000,0.00000000000000000,11.71181401599999994
0.76024794578552246,-66.32527864954272445,70.50658716019353278,32.10322832780263980,0.67714341851739901,-0.00455808411477054,0.00227771604219241,0.73583342315866873,-0.00111111111111111,0.00111111111111111,0.00222222222222222,-0.17999999999999999,1.82000000000000006,9.58999999999999986,0.00000000000000000,0.00000000000000000,11.71181401599999994
0.77012157440185547,-66.30744964408356168,70.47879325663504346,32.12010423280620586,0.67715987873797834,-0.00460189887930822,0.00222144218132979,0.73581817478838241,-0.00111111111111111,0.00111111111111111,0.00222222222222222,-0.17999999999999999,1.82000000000000006,9.58999999999999986,0.00000000000000000,0.00000000000000000,11.71181401599999994
0.78013825416564941,-66.26229117699759286,70.50993211653802462,32.16406793323415769,0.67717997935501806,-0.00467123785749686,0.00193354697113195,0.73580005197996967,-0.00111111111111111,-0.00000000000000000,-0.00000000000000000,-0.17999999999999999,1.80000000000000004,9.58999999999999986,0.00000000000000000,0.00000000000000000,11.71181401599999994
0.79012322425842285,-66.29792246731939542,70.51574184515186516,32.13760776806291375,0.67722750637873230,-0.00451234006632100,0.00214356484825087,0.73575671829818268,-0.00111111111111111,-0.00000000000000000,-0.00000000000000000,-0.17999999999999999,1.80000000000000004,9.58999999999999986,0.00000000000000000,0.00000000000000000,11.71181401599999994
0.80005645751953125,-66.31379604602449263,70.47353713773635775,32.13725157478735639,0.67715395246312682,-0.00464144874875151,0.00214614880490297,0.73582360363227339,-0.00111111111111111,-0.00000000000000000,-0.00000000000000000,-0.17999999999999999,1.80000000000000004,9.58999999999999986,0.00000000000000000,0.00000000000000000,11.71181401599999994
0.81002330780029297,-66.33356875448585299,70.47169759113830878,32.11584412209985118,0.67712610205595336,-0.00469278770942400,0.00211197986205380,0.73584900570639267,-0.00111111111111111,-0.00000000000000000,-0.00000000000000000,-0.17999999999999999,1.80000000000000004,9.58999999999999986,0.00000000000000000,0.00000000000000000,11.71181401599999994
0.82016110420227051,-66.31645556633831973,70.47562182297889422,32.10478527539276428,0.67716261980176096,-0.00462831545742769,0.00221057255572609,0.73581551927654953,-0.00111111111111111,-0.00000000000000000,-0.00000000000000000,-0.17999999999999999,1.80000000000000004,9.58999999999999986,0.00000000000000000,0.00000000000000000,11.71181401599999994
0.83005428314208984,-66.38521077775068591,70.45428267036356829,32.07392058598242102,0.67711813099722662,-0.00463939213244052,0.00233119786323072,0.73585601732403272,0.00111111111111111,-0.00000000000000000,0.00111111111111111,-0.20999999999999999,1.81000000000000005,9.58999999999999986,0.00000000000000000,0.00000000000000000,11.72828169599999981
0.84004950523376465,-66.35449787139134514,70.49449206261986944,32.10233678854310568,0.67712965500809230,-0.00456774240983881,0.00218601507626586,0.73584630689838049,0.00111111111111111,-0.00000000000000000,0.00111111111111111,-0.20999999999999999,1.81000000000000005,9.58999999999999986,0.00000000000000000,0.00000000000000000,11.72828169599999981
0.85010409355163574,-66.32170806330886137,70.50540122603682391,32.10809104625556643,0.67717461579100136,-0.00460281244942787,0.00212041098521128,0.73580490464736592,0.00111111111111111,-0.00000000000000000,0.00111111111111111,-0.20999999999999999,1.81000000000000005,9.58999999999999986,0.00000000000000000,0.00000000000000000,11.72828169599999981
0.86008715629577637,-66.33302666168718531,70.47798962514922039,32.13997210507516655,0.67722292016454366,-0.00453899872346670,0.00223024672684474,0.73576051803146769,0.00111111111111111,-0.00000000000000000,0.00111111111111111,-0.20999999999999999,1.81000000000000005,9.58999999999999986,0.00000000000000000,0.00000000000000000,11.72828169599999981
0.87011528015136719,-66.39356634680008540,70.48195169851531716,32.12597552260374556,0.67709105338773912,-0.00458118134928656,0.00224172983336670,0.73588157528713860,0.00111111111111111,-0.00000000000000000,0.00111111111111111,-0.20999999999999999,1.81000000000000005,9.58999999999999986,0.00000000000000000,0.00000000000000000,11.72828169599999981
0.88018679618835449,-66.37854514284322249,70.45469843042708646,32.08527435302150366,0.67709883960407158,-0.00467106967284284,0.00222940329252355,0.73587388340386906,0.00111111111111111,-0.00000000000000000,0.00111111111111111,-0.20999999999999999,1.81000000000000005,9.58999999999999986,0.00000000000000000,0.00000000000000000,11.72828169599999981
0.89015936851501465,-66.41913845552207363,70.46283979810809228,32.11247822137009678,0.67709863685431304,-0.00449272951578583,0.00230464770927350,0.73587494858193492,0.00000000000000000,-0.00000000000000000,-0.00222222222222222,-0.19000000000000000,1.81000000000000005,9.59999999999999964,0.00000000000000000,0.00000000000000000,11.71510755200000098
0.90019559860229492,-66.34778543197062106,70.46444625490316582,32.11562468345173471,0.67714363862739346,-0.00456312182626181,0.00223322336760125,0.73583332576001437,0.00000000000000000,-0.00000000000000000,-0.00222222222222222,-0.19000000000000000,1.81000000000000005,9.59999999999999964,0.00000000000000000,0.00000000000000000,11.71510755200000098
0.91016221046447754,-66.37670953925724859,70.47495089365223464,32.12426720988431583,0.67714212399395779,-0.00455764837119504,0.00221738224093889,0.73583480141283963,0.00000000000000000,-0.00000000000000000,-0.00222222222222222,-0.19000000000000000,1.81000000000000005,9.59999999999999964,0.00000000000000000,0.00000000000000000,11.71510755200000098
0.92011213302612305,-66.35362223195458853,70.46724772213519827,32.10396120329144054,0.67709930118887607,-0.00463069858767808,0.00220665171005657,0.73587378241676527,0.00000000000000000,-0.00000000000000000,-0.00222222222222222,-0.19000000000000000,1.81000000000000005,9.59999999999999964,0.00000000000000000,0.00000000000000000,11.71510755200000098
0.93018341064453125,-66.39877932375868852,70.48374066371808055,32.06003655435235089,0.67706356985593741,-0.00460949820227156,0.00226077835164458,0.73590662708084253,0.00000000000000000,-0.00222222222222222,0.28333333333333333,-0.19000000000000000,1.81000000000000005,9.60999999999999943,0.00000000000000000,0.00000000000000000,11.71840108800000024
0.94007349014282227,-66.36021454739881165,70.48946644454160548,32.15595939270777137,0.67714625946985552,-0.00457824468443535,0.00210742734625471,0.73583119104287242,0.00000000000000000,-0.00222222222222222,0.28333333333333333,-0.19000000000000000,1.81000000000000005,9.60999999999999943,0.00000000000000000,0.00000000000000000,11.71840108800000024
0.95005774497985840,-66.33645886698833749,70.45638076214349610,32.11942564593528715,0.67716848249740003,-0.00465521347588811,0.00221299799230740,0.73580994688815460,0.00000000000000000,-0.00222222222222222,0.28333333333333333,-0.19000000000000000,1.81000000000000005,9.60999999999999943,0.00000000000000000,0.00000000000000000,11.71840108800000024
0.96006703376770020,-66.30717395664376568,70.49934577024740179,32.08296499081910014,0.67720149737677804,-0.00464290940718240,0.00214661810105268,0.73577983621027199,0.00000000000000000,-0.00222222222222222,0.28333333333333333,-0.19000000000000000,1.81000000000000005,9.60999999999999943,0.00000000000000000,0.00000000000000000,11.71840108800000024
0.97014212608337402,-66.36723995392466691,70.49283687357231543,32.13946811278331950,0.67711946520578614,-0.00457094701243319,0.00219265389633350,0.73585564382678426,0.00000000000000000,-0.00222222222222222,0.28333333333333333,-0.19000000000000000,1.81000000000000005,9.60999999999999943,0.00000000000000000,0.00000000000000000,11.71840108800000024
0.98001241683959961,-66.34583044081027481,70.48001575764510562,32.11006714138991924,0.67711793340487358,-0.00469712465449283,0.00212543844730305,0.73585645597011640,-0.00111111111111111,0.00222222222222222,0.28444444444444444,-0.19000000000000000,1.81000000000000005,9.60999999999999943,0.00000000000000000,0.00000000000000000,11.70193340800000037
0.99005484580993652,-66.39359773302632561,70.47454234922007288,32.07286062769701829,0.67716535539226608,-0.00452175916224624,0.00231302862804855,0.73581334932787856,-0.00111111111111111,0.00222222222222222,0.28444444444444444,-0.19000000000000000,1.81000000000000005,9.60999999999999943,0.00000000000000000,0.00000000000000000,11.70193340800000037
1.00016903877258301,-66.34100620344268862,70.45261024436395303,32.07740214734639750,0.67717454981190461,-0.00461510863213861,0.00236483981666251,0.73580414336425093,-0.00111111111111111,0.00222222222222222,0.28444444444444444,-0.19000000000000000,1.81000000000000005,9.60999999999999943,0.00000000000000000,0.00000000000000000,11.70193340800000037
1.01007747650146484,-66.40652104119763521,70.49137682862455279,32.12046338451499849,0.67712925652429912,-0.00455022974627287,0.00225125390890824,0.73584658538580161,-0.00111111111111111,0.00222222222222222,0.28444444444444444,-0.19000000000000000,1.81000000000000005,9.60999999999999943,0.00000000000000000,0.00000000000000000,11.70193340800000037
1.02011990547180176,-66.35000703648015019,70.47454101680587257,32.11595081659693562,0.67717274236243108,-0.00458830332801069,0.00223565160813028,0.73580637829241591,-0.00111111111111111,0.00222222222222222,0.28444444444444444,-0.19000000000000000,1.81000000000000005,9.60999999999999943,0.00000000000000000,0.00000000000000000,11.70193340800000037
1.03011274337768555,-66.33547605519133583,70.44748099636076688,32.10907257151665561,0.67712575972449240,-0.00468832285029153,0.00216814641822186,0.73584918583055448,0.00111111111111111,-0.00222222222222222,-0.00000000000000000,-0.17999999999999999,1.81000000000000005,9.60999999999999943,0.00000000000000000,0.00000000000000000,11.72169462400000128
1.04012084007263184,-66.35325583432691587,70.48807630698485127,32.10261678558934051,0.67716617833907189,-0.00450572303874130,0.00220150939251878,0.73581303245454199,0.00111111111111111,-0.00222222222222222,-0.00000000000000000,-0.17999999999999999,1.81000000000000005,9.60999999999999943,0.00000000000000000,0.00000000000000000,11.72169462400000128
1.05014061927795410,-66.37733744472286901,70.43941493812013732,32.11444741661148328,0.67714041022608573,-0.00451696297291286,0.00230745230760411,0.73583635242368761,0.00111111111111111,-0.00222222222222222,-0.00000000000000000,-0.17999999999999999,1.81000000000000005,9.60999999999999943,0.00000000000000000,0.00000000000000000,11.72169462400000128
1.06011486053466797,-66.29184780501330465,70.49193952367265581,32.14436953812660391,0.67718250293965021,-0.00468686847341667,0.00208189701154621,0.73579722524696745,0.00111111111111111,-0.00222222222222222,-0.00000000000000000,-0.17999999999999999,1.81000000000000005,9.60999999999999943,0.00000000000000000,0.00000000000000000,11.72169462400000128
1.07009482383728027,-66.34522319144345204,70.49081533647627396,32.16411321247598920,0.67713380122090228,-0.00459954983027148,0.00208889521088499,0.73584257548900256,0.00111111111111111,-0.00222222222222222,-0.00000000000000000,-0.17999999999999999,1.81000000000000005,9.60999999999999943,0.00000000000000000,0.00000000000000000,11.72169462400000128
1.08012890815734863,-66.30198592264245860,70.48688752547019476,32.11537940300398475,0.67720947276910837,-0.00459357730397489,0.00221554885509893,0.73577260100020703,-0.00111111111111111,0.00111111111111111,0.00111111111111111,-0.17999999999999999,1.81000000000000005,9.59999999999999964,0.00000000000000000,0.00000000000000000,11.72828169599999981
1.09013009071350098,-66.36878969339923628,70.46746466510046503,32.12074756091032413,0.67719422531726114,-0.00451353651066584,0.00234497305793171,0.73578672880562290,-0.00111111111111111,0.00111111111111111,0.00111111111111111,-0.17999999999999999,1.81000000000000005,9.59999999999999964,0.00000000000000000,0.00000000000000000,11.72828169599999981
1.10012435913085938,-66.29489033237719298,70.48952455591349064,32.13680964454520250,0.67724975007242783,-0.00456609042398284,0.00218949056062600,0.73573577660472533,-0.00111111111111111,0.00111111111111111,0.00111111111111111,-0.17999999999999999,1.81000000000000005,9.59999999999999964,0.00000000000000000,0.00000000000000000,11.72828169599999981
1.11011409759521484,-66.30010167715933278,70.51877063377195043,32.17312414780669627,0.67720603780268118,-0.00464761353688245,0.00199531465844462,0.73577605340988028,-0.00111111111111111,0.00111111111111111,0.00111111111111111,-0.17999999999999999,1.81000000000000005,9.59999999999999964,0.00000000000000000,0.00000000000000000,11.72828169599999981
1.12012887001037598,-66.24239653290925389,70.51963502760590075,32.19316386297143850,0.67724365040063839,-0.00462870752109891,0.00195221612141788,0.73574166791810680,-0.00111111111111111,0.00111111111111111,0.00111111111111111,-0.17999999999999999,1.81000000000000005,9.59999999999999964,0.00000000000000000,0.00000000000000000,11.72828169599999981
1.13012528419494629,-66.17617297427800338,70.51461869137898475,32.18998088513949085,0.67726155635047525,-0.00475723690168092,0.00187096500453535,0.73572457650723189,-0.00222222222222222,0.00111111111111111,-0.00000000000000000,-0.19000000000000000,1.82000000000000006,9.63000000000000078,0.00000000000000000,0.00000000000000000,11.71510755200000098
1.14012265205383301,-66.27033573815585044,70.53318292725013805,32.18520715389635711,0.67723687202757588,-0.00459629442059918,0.00206894569968481,0.73574779150711389,-0.00222222222222222,0.00111111111111111,-0.00000000000000000,-0.19000000000000000,1.82000000000000006,9.63000000000000078,0.00000000000000000,0.00000000000000000,11.71510755200000098
1.15008687973022461,-66.22823130294905525,70.50521099407420422,32.18283529017588052,0.67724254290845287,-0.00467719033675984,0.00199031875525305,0.73574227865244923,-0.00222222222222222,0.00111111111111111,-0.00000000000000000,-0.19000000000000000,1.82000000000000006,9.63000000000000078,0.00000000000000000,0.00000000000000000,11.71510755200000098
1.16011595726013184,-66.18742832599694736,70.52092359229196461,32.18124696471945612,0.67726452714959717,-0.00469042722922500,0.00186292920485324,0.73572229112078547,-0.00222222222222222,0.00111111111111111,-0.00000000000000000,-0.19000000000000000,1.82000000000000006,9.63000000000000078,0.00000000000000000,0.00000000000000000,11.71510755200000098
1.17013430595397949,-66.28530489076935339,70.53173661604834876,32.16113276162422352,0.67722101559076386,-0.00464204424062044,0.00202649715627352,0.73576221755181093,-0.00222222222222222,0.00111111111111111,-0.00000000000000000,-0.19000000000000000,1.82000000000000006,9.63000000000000078,0.00000000000000000,0.00000000000000000,11.71510755200000098
1.18008017539978027,-66.21694015297147473,70.51092653620509054,32.15960633954131254,0.67725794092649305,-0.00465540612876699,0.00194038275209524,0.73572837620996923,0.00000000000000000,-0.00000000000000000,0.00111111111111111,-0.16000000000000000,1.81000000000000005,9.59999999999999964,0.00000000000000000,0.00000000000000000,11.73157523200000085
1.19012475013732910,-66.24499280914092481,70.48948446819419189,32.19310526287156193,0.67728202855395847,-0.00459630778675880,0.00202478149085561,0.73570634631793075,0.00000000000000000,-0.00000000000000000,0.00111111111111111,-0.16000000000000000,1.81000000000000005,9.59999999999999964,0.00000000000000000,0.00000000000000000,11.73157523200000085
1.20012068748474121,-66.21468414610929187,70.50365929189571546,32.18979800988656592,0.67731268913728371,-0.00467259958599030,0.00197475111725296,0.73567777477966234,0.00000000000000000,-0.00000000000000000,0.00111111111111111,-0.16000000000000000,1.81000000000000005,9.59999999999999964,0.00000000000000000,0.00000000000000000,11.73157523200000085
1.21012020111083984,-66.29081021635441573,70.51390538888621506,32.14396214952370912,0.67716114481442491,-0.00463141961596171,0.00206679892491111,0.73581727504059224,0.00000000000000000,-0.00000000000000000,0.00111111111111111,-0.16000000000000000,1.81000000000000005,9.59999999999999964,0.00000000000000000,0.00000000000000000,11.73157523200000085
1.22014403343200684,-66.18059329835547544,70.52974686192379750,32.23159934806265170,0.67731967949598104,-0.00464812374292596,0.00181706322445665,0.73567190037024666,0.00000000000000000,-0.00000000000000000,0.00111111111111111,-0.16000000000000000,1.81000000000000005,9.59999999999999964,0.00000000000000000,0.00000000000000000,11.73157523200000085
1.23013734817504883,-66.22605739737853980,70.51242704512993953,32.21308069781589012,0.67720818539702854,-0.00471528280789469,0.00186985711423249,0.73577397573825476,0.00000000000000000,-0.00000000000000000,-0.00000000000000000,-0.19000000000000000,1.82000000000000006,9.64000000000000057,0.00000000000000000,0.00000000000000000,11.71840108800000024
1.24018430709838867,-66.17392301473348937,70.52967698473898395,32.22289774268069351,0.67731565798096205,-0.00461776430079794,0.00186704714658988,0.73567566892050418,0.00000000000000000,-0.00000000000000000,-0.00000000000000000,-0.19000000000000000,1.82000000000000006,9.64000000000000057,0.00000000000000000,0.00000000000000000,11.71840108800000024
1.25004529953002930,-66.23842978272118387,70.52376604063023535,32.19578384518807468,0.67726052713750196,-0.00464960202133253,0.00194758819910178,0.73572601318879782,0.00000000000000000,-0.00000000000000000,-0.00000000000000000,-0.19000000000000000,1.82000000000000006,9.64000000000000057,0.00000000000000000,0.00000000000000000,11.71840108800000024
1.26009011268615723,-66.21137815910361724,70.55548795373302084,32.21119056586396567,0.67724424894590873,-0.00466971574585717,0.00183184624465433,0.73574116737061857,0.00000000000000000,-0.00000000000000000,-0.00000000000000000,-0.19000000000000000,1.82000000000000006,9.64000000000000057,0.00000000000000000,0.00000000000000000,11.71840108800000024
1.27014446258544922,-66.20211406934801346,70.53585336165282627,32.19909599700869052,0.67725661228773160,-0.00472255245568691,0.00187289471540432,0.73572934621111419,0.00000000000000000,-0.00000000000000000,-0.00000000000000000,-0.19000000000000000,1.82000000000000006,9.64000000000000057,0.00000000000000000,0.00000000000000000,11.71840108800000024
1.28003239631652832,-66.27243446273442373,70.49351019211248115,32.17113227086920091,0.67716806776900718,-0.00472254030871929,0.00196371298949133,0.73581060704390322,0.00000000000000000,-0.00000000000000000,-0.00000000000000000,-0.19000000000000000,1.82000000000000006,9.64000000000000057,0.00000000000000000,0.00000000000000000,11.71840108800000024
1.29002261161804199,-66.23484039198136486,70.52145054691807502,32.20436053343216543,0.67726716218822880,-0.00462898951692262,0.00194485159540389,0.73572004256362822,-0.00111111111111111,-0.00000000000000000,0.00222222222222222,-0.19000000000000000,1.82000000000000006,9.57000000000000028,11.69999999999999929,11.69999999999999929,11.72169462400000128
1.30016040802001953,-66.26293739338018440,70.47207109677528081,32.17901861372612160,0.67720886793127089,-0.00468482224130314,0.00202437071176203,0.73577313321365234,-0.00111111111111111,-0.00000000000000000,0.00222222222222222,-0.19000000000000000,1.82000000000000006,9.57000000000000028,11.69999999999999929,11.69999999999999929,11.72169462400000128
1.31008625030517578,-66.30404600174564678,70.51132741330761178,32.17021427840768411,0.67716884284184764,-0.00462686179483194,0.00201338653371589,0.73581036735617555,-0.00111111111111111,-0.00000000000000000,0.00222222222222222,-0.19000000000000000,1.82000000000000006,9.57000000000000028,11.69999999999999929,11.69999999999999929,11.72169462400000128
1.32014608383178711,-66.35782538356845350,70.56766816033008638,32.20949680386220138,0.67700424421637839,-0.00446024759324933,0.00206731451118513,0.73596269315443474,-0.00111111111111111,-0.00000000000000000,0.00222222222222222,-0.19000000000000000,1.82000000000000006,9.57000000000000028,11.69999999999999929,11.69999999999999929,11.72169462400000128
1.33015441894531250,-66.41797614821591367,70.74409686823308618,32.26198905703559205,0.67663139244056381,-0.00450111172730943,0.00189692538074651,0.73630571125807609,0.00222222222222222,-0.00000000000000000,-0.00000000000000000,0.02000000000000000,1.79000000000000004,9.53999999999999915,15.50000000000000000,15.50000000000000000,11.66899804800000062
1.34012055397033691,-66.48725402439158927,71.04069088548693856,32.31569558171747047,0.67650035845734613,-0.00425222519930473,0.00195807769591808,0.73642742311763054,0.00222222222222222,-0.00000000000000000,-0.00000000000000000,0.02000000000000000,1.79000000000000004,9.53999999999999915,15.50000000000000000,15.50000000000000000,11.66899804800000062
1.35007524490356445,-66.44100128953523665,71.46541383304533213,32.36317104050356619,0.67647517004713964,-0.00428192005240666,0.00189067170195283,0.73645056509644558,0.00222222222222222,-0.00000000000000000,-0.00000000000000000,0.02000000000000000,1.79000000000000004,9.53999999999999915,15.50000000000000000,15.50000000000000000,11.66899804800000062
1.36006426811218262,-66.43240206677945991,72.06750674174782034,32.38896455508726291,0.67654719455803558,-0.00429099465321729,0.00175953106116821,0.73638467186042267,0.00222222222222222,-0.00000000000000000,-0.00000000000000000,0.02000000000000000,1.79000000000000004,9.53999999999999915,15.50000000000000000,15.50000000000000000,11.66899804800000062
1.37007236480712891,-66.45617218868376597,72.81683573915877616,32.38711331857324893,0.67661686465204485,-0.00447715811642727,0.00163830815213882,0.73631982824723330,0.00222222222222222,-0.00000000000000000,-0.00000000000000000,0.02000000000000000,1.79000000000000004,9.53999999999999915,15.50000000000000000,15.50000000000000000,11.66899804800000062
1.38005661964416504,-66.38139305114553679,73.66799445433302651,32.31029985231330670,0.67659393832398540,-0.00474686446798177,0.00138132231756460,0.73633973262999808,0.00888888888888889,-0.16666666666666666,0.08555555555555555,1.19999999999999996,1.87999999999999989,9.58000000000000007,23.69999999999999929,23.69999999999999929,11.69534633600000006
1.39009499549865723,-66.53036364497106092,74.39960599034185407,32.30566330580267476,0.67642966474089272,-0.00449941013088124,0.00169757170892833,0.73649153574042558,0.00888888888888889,-0.16666666666666666,0.08555555555555555,1.19999999999999996,1.87999999999999989,9.58000000000000007,23.69999999999999929,23.69999999999999929,11.69534633600000006
1.40001153945922852,-66.71809629766815419,75.30729013354908830,32.37848185048606098,0.67625725385291457,-0.00434229025309946,0.00169490226498270,0.73665079816218493,0.00888888888888889,-0.16666666666666666,0.08555555555555555,1.19999999999999996,1.87999999999999989,9.58000000000000007,23.69999999999999929,23.69999999999999929,11.69534633600000006
1.41002511978149414,-66.93602343787519260,76.32570163280728082,32.44281902819118102,0.67613493184066942,-0.00415528539849969,0.00168483070823816,0.73676417454539367,0.00888888888888889,-0.16666666666666666,0.08555555555555555,1.19999999999999996,1.87999999999999989,9.58000000000000007,23.69999999999999929,23.69999999999999929,11.69534633600000006
1.42002391815185547,-67.08546815560599441,77.40205894668362419,32.36189384416069004,0.67609548668252717,-0.00405449280545115,0.00180436165426791,0.73680065028108355,0.00888888888888889,-0.16666666666666666,0.08555555555555555,1.19999999999999996,1.87999999999999989,9.58000000000000007,23.69999999999999929,23.69999999999999929,11.69534633600000006
1.43016409873962402,-67.26518278018771468,78.79531014757075980,32.22501365875974955,0.67610459019645408,-0.00396927364429954,0.00187525836340391,0.73679258369509382,0.00888888888888889,-0.16666666666666666,0.08555555555555555,1.19999999999999996,1.87999999999999989,9.58000000000000007,23.69999999999999929,23.69999999999999929,11.69534633600000006
1.44004607200622559,-67.32027732163854239,80.10806203710184548,32.14650212288019304,0.67586109068278366,-0.00405959765883857,0.00203839451953541,0.73701502746939251,-0.00666666666666667,-0.08444444444444445,0.03555555555555556,2.52999999999999980,1.70999999999999996,9.27999999999999936,41.70000000000000284,41.70000000000000284,11.67887865600000019
1.45005893707275391,-67.50100561214182449,81.60845867516000851,32.21335243884235666,0.67563704602013508,-0.00389399144852456,0.00209804406600634,0.73722114530640115,-0.00666666666666667,-0.08444444444444445,0.03555555555555556,2.52999999999999980,1.70999999999999996,9.27999999999999936,41.70000000000000284,41.70000000000000284,11.67887865600000019
1.46002507209777832,-67.71497486403873722,83.08444346284015580,32.23206164709273480,0.67547906744919206,-0.00367124591916107,0.00207944798770700,0.73736709126963162,-0.00666666666666667,-0.08444444444444445,0.03555555555555556,2.52999999999999980,1.70999999999999996,9.27999999999999936,41.70000000000000284,41.70000000000000284,11.67887865600000019
1.47012329101562500,-67.96683717683167458,84.98683140210606268,32.17163098872578786,0.67529581706264252,-0.00337534845815469,0.00247617265603348,0.73753510767248320,-0.00666666666666667,-0.08444444444444445,0.03555555555555556,2.52999999999999980,1.70999999999999996,9.27999999999999936,41.70000000000000284,41.70000000000000284,11.67887865600000019
1.48007130622863770,-68.02111063648011680,87.08660386694604938,32.17588133657165628,0.67523558494160107,-0.00376348828084647,0.00205281146413082,0.73758967383608787,-0.01000000000000000,0.13000000000000000,0.04444444444444445,-0.47999999999999998,2.20000000000000018,10.51999999999999957,45.39999999999999858,45.39999999999999858,11.65911744000000105
1.49002933502197266,-68.12497832887872562,89.23922596508889171,32.16055404489038239,0.67526567068062637,-0.00358490018244934,0.00182639067810957,0.73756361541769166,-0.01000000000000000,0.13000000000000000,0.04444444444444445,-0.47999999999999998,2.20000000000000018,10.51999999999999957,45.39999999999999858,45.39999999999999858,11.65911744000000105
1.50016617774963379,-68.45590908068214731,91.75952926837454982,32.22688933961777735,0.67534772304065149,-0.00334111407340108,0.00189387212207193,0.73748945971379265,-0.01000000000000000,0.13000000000000000,0.04444444444444445,-0.47999999999999998,2.20000000000000018,10.51999999999999957,45.39999999999999858,45.39999999999999858,11.65911744000000105
1.51010107994079590,-68.65388483608225556,94.13842051133639188,32.14331152491089227,0.67510210559203598,-0.00343079397391527,0.00209069463486866,0.73771336281366862,-0.01000000000000000,0.13000000000000000,0.04444444444444445,-0.47999999999999998,2.20000000000000018,10.51999999999999957,45.39999999999999858,45.39999999999999858,11.65911744000000105
1.52008128166198730,-68.92344920646560524,96.97756536678876671,32.02731835104656000,0.67521993751637877,-0.00337620033416568,0.00286562604738871,0.73760316257391256,-0.01000000000000000,0.13000000000000000,0.04444444444444445,-0.47999999999999998,2.20000000000000018,10.51999999999999957,45.39999999999999858,45.39999999999999858,11.65911744000000105
1.53011751174926758,-69.13902693847789749,99.95470412603265231,31.98452656945620731,0.67518523870849567,-0.00361530640464994,0.00214625940625978,0.73763623593226013,-0.00111111111111111,0.03222222222222222,0.02777777777777778,2.56000000000000005,2.02000000000000002,9.17999999999999972,58.20000000000000284,58.20000000000000284,11.67229158399999989
1.54012656211853027,-69.41214315093016296,102.79542057237920005,32.03460738148567799,0.67496786140699039,-0.00345000128819651,0.00202718830003778,0.73783627863258494,-0.00111111111111111,0.03222222222222222,0.02777777777777778,2.56000000000000005,2.02000000000000002,9.17999999999999972,58.20000000000000284,58.20000000000000284,11.67229158399999989
1.55009222030639648,-69.70571169209210893,105.93303066437083260,32.05276059829340340,0.67499051414701094,-0.00333066146011363,0.00200696202512321,0.73781615908654474,-0.00111111111111111,0.03222222222222222,0.02777777777777778,2.56000000000000005,2.02000000000000002,9.17999999999999972,58.20000000000000284,58.20000000000000284,11.67229158399999989
1.56004643440246582,-70.04682466122129370,109.32297474305778451,32.00909566935207806,0.67501019812282514,-0.00332570764992478,0.00200803613721731,0.73779817015880611,-0.00111111111111111,0.03222222222222222,0.02777777777777778,2.56000000000000005,2.02000000000000002,9.17999999999999972,58.20000000000000284,58.20000000000000284,11.67229158399999989
1.57013916969299316,-70.26927507045452614,112.59368633895628875,31.99828921854891561,0.67502290681046395,-0.00345191611801049,0.00201085419397809,0.73778595542452308,-0.00111111111111111,0.03222222222222222,0.02777777777777778,2.56000000000000005,2.02000000000000002,9.17999999999999972,58.20000000000000284,58.20000000000000284,11.67229158399999989
1.58013772964477539,-70.66137784770634767,116.40191910487510540,32.01090772680583285,0.67494744932543993,-0.00335173780114685,0.00204358653765457,0.73785535862854468,0.00333333333333333,0.04888888888888889,0.02888888888888889,2.83999999999999986,1.87000000000000011,11.66000000000000014,74.70000000000000284,74.70000000000000284,11.64923683199999971
1.59004974365234375,-70.98185953005101112,120.09485018006228074,32.07226893812720192,0.67511105212495170,-0.00287957548197679,0.00186937336811110,0.73770812709837685,0.00333333333333333,0.04888888888888889,0.02888888888888889,2.83999999999999986,1.87000000000000011,11.66000000000000014,74.70000000000000284,74.70000000000000284,11.64923683199999971
1.60002493858337402,-71.12715478059612906,124.04763194707908269,31.93327929844996049,0.67533921250849038,-0.00298899152061213,0.00221173486098400,0.73749787945932865,0.00333333333333333,0.04888888888888889,0.02888888888888889,2.83999999999999986,1.87000000000000011,11.66000000000000014,74.70000000000000284,74.70000000000000284,11.64923683199999971
1.61002302169799805,-71.67203888043333393,128.38724639771345437,31.82733059814601972,0.67502817097940959,-0.00289135042811585,0.00254087534540610,0.73778191386708147,0.00333333333333333,0.04888888888888889,0.02888888888888889,2.83999999999999986,1.87000000000000011,11.66000000000000014,74.70000000000000284,74.70000000000000284,11.64923683199999971
1.62012219429016113,-71.88727752932803128,132.50385317161635612,31.77974560389723635,0.67482429727451798,-0.00334360035728494,0.00200579683857325,0.73796813272908046,0.00333333333333333,0.04888888888888889,0.02888888888888889,2.83999999999999986,1.87000000000000011,11.66000000000000014,74.70000000000000284,74.70000000000000284,11.64923683199999971
1.63010621070861816,-72.54144615048134881,137.38545049971355638,31.88495140322190124,0.67462517783326759,-0.00273415616267281,0.00240618431342180,0.73815147774732537,0.00333333333333333,0.04888888888888889,0.02888888888888889,2.83999999999999986,1.87000000000000011,11.66000000000000014,74.70000000000000284,74.70000000000000284,11.64923683199999971
1.64011955261230469,-72.94568578729914066,141.84794780576871176,31.97097923421524968,0.67454385651747306,-0.00258933660375841,0.00254657347885905,0.73822584344765652,0.00888888888888889,-0.05111111111111111,0.02555555555555556,1.18999999999999995,2.83999999999999986,8.06000000000000050,81.40000000000000568,81.40000000000000568,11.58336611200000021
1.65012526512145996,-73.29075955073459170,146.95265672698965886,31.76947535069450979,0.67463570548919805,-0.00299374869295411,0.00242103396284493,0.73814080021524764,0.00888888888888889,-0.05111111111111111,0.02555555555555556,1.18999999999999995,2.83999999999999986,8.06000000000000050,81.40000000000000568,81.40000000000000568,11.58336611200000021
1.66012787818908691,-73.73426225478259255,151.70888474535513524,31.65450620579970575,0.67457342887382732,-0.00273708841702532,0.00296309749604225,0.73819673357285587,0.00888888888888889,-0.05111111111111111,0.02555555555555556,1.18999999999999995,2.83999999999999986,8.06000000000000050,81.40000000000000568,81.40000000000000568,11.58336611200000021
1.67008805274963379,-74.19329266219479280,157.11724811856717565,31.71551752905289234,0.67439410685235224,-0.00298281964670041,0.00260799936883132,0.73836094816090159,0.00888888888888889,-0.05111111111111111,0.02555555555555556,1.18999999999999995,2.83999999999999986,8.06000000000000050,81.40000000000000568,81.40000000000000568,11.58336611200000021
1.68009018898010254,-74.73681861433848894,162.83846818832725489,31.62259921371924065,0.67419152211608679,-0.00302886818048400,0.00256735756451525,0.73854588627889284,0.03888888888888889,0.04222222222222222,-0.24888888888888888,1.92999999999999994,2.47000000000000020,9.27999999999999936,82.09999999999999432,82.09999999999999432,11.62947561600000057
1.69002413749694824,-75.24660473885815293,167.91706567560228791,31.56793757056713901,0.67387629748706157,-0.00288204458075744,0.00264586485552096,0.73883383037279093,0.03888888888888889,0.04222222222222222,-0.24888888888888888,1.92999999999999994,2.47000000000000020,9.27999999999999936,82.09999999999999432,82.09999999999999432,11.62947561600000057
1.70002913475036621,-75.72973848770440952,173.74717551177545261,31.49925799232552848,0.67370686939130675,-0.00311525973670488,0.00269523926885518,0.73898720217404390,0.03888888888888889,0.04222222222222222,-0.24888888888888888,1.92999999999999994,2.47000000000000020,9.27999999999999936,82.09999999999999432,82.09999999999999432,11.62947561600000057
1.71002459526062012,-76.37113056728823324,179.59315138652527821,31.31119535418094202,0.67351074422466961,-0.00290320557179133,0.00322153330325526,0.73916471136987827,0.03888888888888889,0.04222222222222222,-0.24888888888888888,1.92999999999999994,2.47000000000000020,9.27999999999999936,82.09999999999999432,82.09999999999999432,11.62947561600000057
1.72004294395446777,-76.78077740659342965,184.99011604013426791,31.40222222401053287,0.67316905116690018,-0.00318088826592340,0.00273920197654694,0.73947671178572383,0.03888888888888889,0.04222222222222222,-0.24888888888888888,1.92999999999999994,2.47000000000000020,9.27999999999999936,82.09999999999999432,82.09999999999999432,11.62947561600000057
1.73003482818603516,-77.35748209440156131,190.83339704732972564,31.48466833213048233,0.67276357364530792,-0.00325279941468493,0.00255219316545669,0.73984598368985444,0.03888888888888889,0.04222222222222222,-0.24888888888888888,1.92999999999999994,2.47000000000000020,9.27999999999999936,82.09999999999999432,82.09999999999999432,11.62947561600000057
1.74002408981323242,-77.88825434291312888,196.16990613056040615,31.42893574744799068,0.67247626242654024,-0.00325118827130136,0.00242090905940684,0.74010759045356445,0.02000000000000000,0.01888888888888889,0.04666666666666667,2.08000000000000007,1.52000000000000002,8.22000000000000064,82.09999999999999432,82.09999999999999432,11.66570451199999958
1.75003123283386230,-78.21110403322006732,202.10180421470104761,31.42584464811271161,0.67224025187320924,-0.00338015215632902,0.00269708465365104,0.74032043337139830,0.02000000000000000,0.01888888888888889,0.04666666666666667,2.08000000000000007,1.52000000000000002,8.22000000000000064,82.09999999999999432,82.09999999999999432,11.66570451199999958
1.76004886627197266,-78.65471446411133627,208.07422381981089643,31.45961977102052387,0.67207229770694421,-0.00341327013827448,0.00230522249959229,0.74047407935126197,0.02000000000000000,0.01888888888888889,0.04666666666666667,2.08000000000000007,1.52000000000000002,8.22000000000000064,82.09999999999999432,82.09999999999999432,11.66570451199999958
1.77008914947509766,-79.03854332577650155,213.61300224825461669,31.65603774679793858,0.67175954539943039,-0.00328282074443740,0.00187379089941794,0.74075962711285459,0.02000000000000000,0.01888888888888889,0.04666666666666667,2.08000000000000007,1.52000000000000002,8.22000000000000064,82.09999999999999432,82.09999999999999432,11.66570451199999958
1.78003501892089844,-79.50373117166354575,219.54231806973143648,31.54680329620519430,0.67142342732568583,-0.00309035188919802,0.00238354606232935,0.74106366101138643,0.03333333333333333,0.00333333333333333,0.08666666666666667,0.28999999999999998,2.14000000000000012,14.43999999999999950,82.09999999999999432,82.09999999999999432,11.54384368000000016
1.79010629653930664,-80.00339776526362812,225.00952688977830007,31.76028710879817041,0.67126089717356063,-0.00286586459077460,0.00214027724010507,0.74121252954819206,0.03333333333333333,0.00333333333333333,0.08666666666666667,0.28999999999999998,2.14000000000000012,14.43999999999999950,82.09999999999999432,82.09999999999999432,11.54384368000000016
1.80011749267578125,-80.74407223195103711,230.94711834869940503,31.76598846913757868,0.67080325796786489,-0.00246720297808379,0.00297313145892754,0.74162528442501918,0.03333333333333333,0.00333333333333333,0.08666666666666667,0.28999999999999998,2.14000000000000012,14.43999999999999950,82.09999999999999432,82.09999999999999432,11.54384368000000016
1.81022882461547852,-81.30709258731307898,236.96272596272100941,31.74785388209424397,0.67054864736354336,-0.00218136092131827,0.00267409676433180,0.74185753510357277,0.03333333333333333,0.00333333333333333,0.08666666666666667,0.28999999999999998,2.14000000000000012,14.43999999999999950,82.09999999999999432,82.09999999999999432,11.54384368000000016
1.82007479667663574,-81.69033489721940100,242.55467488776491791,31.81189470917422568,0.67037091994415909,-0.00207021992452434,0.00246338625570999,0.74201918816890511,0.03333333333333333,0.00333333333333333,0.08666666666666667,0.28999999999999998,2.14000000000000012,14.43999999999999950,82.09999999999999432,82.09999999999999432,11.54384368000000016
1.83011889457702637,-82.19896617188885557,248.50684533696963285,31.66002681428244614,0.66994316955831323,-0.00238613179879976,0.00196847189941341,0.74240594088111989,0.03333333333333333,0.00333333333333333,0.08666666666666667,0.28999999999999998,2.14000000000000012,14.43999999999999950,82.09999999999999432,82.09999999999999432,11.54384368000000016
1.84011769294738770,-83.09643948894868970,253.89969514207396628,31.56874951121793416,0.66954739828238052,-0.00176949026342936,0.00289094164992622,0.74276159890901738,-0.02111111111111111,-0.02777777777777778,0.08222222222222222,0.89000000000000001,0.46999999999999997,8.34999999999999964,82.09999999999999432,82.09999999999999432,11.67887865600000019
1.85009479522705078,-83.52857710978712191,259.93977277983947261,31.49314596893586682,0.66921142970801883,-0.00192547860200805,0.00278258744095352,0.74306433913049275,-0.02111111111111111,-0.02777777777777778,0.08222222222222222,0.89000000000000001,0.46999999999999997,8.34999999999999964,82.09999999999999432,82.09999999999999432,11.67887865600000019
1.86008667945861816,-84.15301795288839060,265.37906909074985151,31.56888749864573995,0.66871713232112895,-0.00176930050177324,0.00263612684817549,0.74351013264862831,-0.02111111111111111,-0.02777777777777778,0.08222222222222222,0.89000000000000001,0.46999999999999997,8.34999999999999964,82.09999999999999432,82.09999999999999432,11.67887865600000019
1.87013626098632812,-84.76132132609019720,271.40353592677155348,31.42693516782196639,0.66854279142542972,-0.00167988329630479,0.00315362961525016,0.74366509172170714,-0.02111111111111111,-0.02777777777777778,0.08222222222222222,0.89000000000000001,0.46999999999999997,8.34999999999999964,82.09999999999999432,82.09999999999999432,11.67887865600000019
1.88018608093261719,-85.41258022274830353,277.39501720572229715,31.44107787202976922,0.66802752568933277,-0.00155343419609396,0.00275765933101895,0.74412983213858586,0.25666666666666665,-0.01000000000000000,0.10666666666666667,-2.18000000000000016,1.73999999999999999,9.40000000000000036,82.09999999999999432,82.09999999999999432,11.68217219200000123
1.89005255699157715,-85.99936686285616361,282.72540174422039172,31.52825767866869100,0.66770542434043179,-0.00118816642574568,0.00296774217523831,0.74441873100647471,0.25666666666666665,-0.01000000000000000,0.10666666666666667,-2.18000000000000016,1.73999999999999999,9.40000000000000036,82.09999999999999432,82.09999999999999432,11.68217219200000123
1.90009665489196777,-86.77679079297119813,288.59443007745124987,31.31609826123057871,0.66738312757863250,-0.00099314114526912,0.00350505361337648,0.74470563935906597,0.25666666666666665,-0.01000000000000000,0.10666666666666667,-2.18000000000000016,1.73999999999999999,9.40000000000000036,82.09999999999999432,82.09999999999999432,11.68217219200000123
1.91026473045349121,-87.48688096916043833,294.57125100298480902,31.42246860397420605,0.66706476195735298,-0.00082202868412360,0.00332194181987760,0.74499187400009137,0.25666666666666665,-0.01000000000000000,0.10666666666666667,-2.18000000000000016,1.73999999999999999,9.40000000000000036,82.09999999999999432,82.09999999999999432,11.68217219200000123
1.92011857032775879,-87.76030063793562874,299.83256340701171894,31.19180705757996819,0.66687617567364676,-0.00112557676476258,0.00347217061699784,0.74515960936368797,0.25666666666666665,-0.01000000000000000,0.10666666666666667,-2.18000000000000016,1.73999999999999999,9.40000000000000036,82.09999999999999432,82.09999999999999432,11.68217219200000123
1.93011951446533203,-88.54185791452361798,305.85996722007968174,31.22367141729040441,0.66652027422777860,-0.00080935687679923,0.00345707978925632,0.74547844877240022,0.25666666666666665,-0.01000000000000000,0.10666666666666667,-2.18000000000000016,1.73999999999999999,9.40000000000000036,82.09999999999999432,82.09999999999999432,11.68217219200000123
1.94012689590454102,-89.22687687319496774,311.15621770097436638,31.08862341807552454,0.66596826939715337,-0.00096299997819284,0.00401802005867717,0.74596862688856469,0.02444444444444445,-0.02555555555555556,0.11444444444444445,-0.22000000000000000,2.00999999999999979,7.40000000000000036,82.09999999999999432,82.09999999999999432,11.59324671999999978
1.95013976097106934,-89.64153349363465395,317.17924302311035945,31.30419275122832801,0.66580873843824262,-0.00110392744691248,0.00331407909289227,0.74611428216006825,0.02444444444444445,-0.02555555555555556,0.11444444444444445,-0.22000000000000000,2.00999999999999979,7.40000000000000036,82.09999999999999432,82.09999999999999432,11.59324671999999978
1.96011829376220703,-90.39835234036094391,322.66278063196983794,31.29317083552820478,0.66529955162751453,-0.00101856456457564,0.00271465838883126,0.74657089399486209,0.02444444444444445,-0.02555555555555556,0.11444444444444445,-0.22000000000000000,2.00999999999999979,7.40000000000000036,82.09999999999999432,82.09999999999999432,11.59324671999999978
1.97012925148010254,-91.18144335726850613,328.38893380182918236,31.26307465650646478,0.66486938504677262,-0.00133330894233790,0.00263961093524105,0.74695378409169422,0.02444444444444445,-0.02555555555555556,0.11444444444444445,-0.22000000000000000,2.00999999999999979,7.40000000000000036,82.09999999999999432,82.09999999999999432,11.59324671999999978
1.98012948036193848,-91.87315917426845147,334.40321304557159010,31.59475022955333756,0.66431955471081106,-0.00084243506523309,0.00264095594738313,0.74744353959591803,0.05333333333333334,-0.03000000000000000,0.09666666666666666,0.10000000000000001,2.16999999999999993,9.03999999999999915,83.59999999999999432,83.59999999999999432,11.66899804800000062
1.99012017250061035,-92.45616211065919288,339.64254238599937707,31.43589710771879098,0.66407109204123693,-0.00070444207605957,0.00288157610903351,0.74766355066677448,0.05333333333333334,-0.03000000000000000,0.09666666666666666,0.10000000000000001,2.16999999999999993,9.03999999999999915,83.59999999999999432,83.59999999999999432,11.66899804800000062
2.00002479553222656,-93.18617167117527345,345.67080350414761369,31.58691586801166906,0.66398139275635892,-0.00020738390013011,0.00319329081675415,0.74774224834430980,0.05333333333333334,-0.03000000000000000,0.09666666666666666,0.10000000000000001,2.16999999999999993,9.03999999999999915,83.59999999999999432,83.59999999999999432,11.66899804800000062
2.01003623008728027,-93.84758636337608095,351.63355555494081273,31.35651463203291556,0.66330959118186217,-0.00040603029947612,0.00336687896775671,0.74833741421337696,0.05333333333333334,-0.03000000000000000,0.09666666666666666,0.10000000000000001,2.16999999999999993,9.03999999999999915,83.59999999999999432,83.59999999999999432,11.66899804800000062
2.02009224891662598,-94.13202579873460252,356.98180461029443222,31.40357361774178457,0.66343043104514665,-0.00065643853493261,0.00323398816048416,0.74823069542239362,0.05333333333333334,-0.03000000000000000,0.09666666666666666,0.10000000000000001,2.16999999999999993,9.03999999999999915,83.59999999999999432,83.59999999999999432,11.66899804800000062
2.03005385398864746,-95.02443365849391910,362.84043679948854333,31.31324504535807662,0.66291851345058828,-0.00095243990416555,0.00345849325141340,0.74868296107706445,-0.23777777777777778,-0.01666666666666667,0.09555555555555556,-2.72000000000000020,1.66999999999999993,9.97000000000000064,84.40000000000000568,84.40000000000000568,11.66899804800000062
2.04004740715026855,-95.56240876779649795,368.45139893535446163,31.47026661524018110,0.66263323145561581,-0.00078607358965119,0.00281129647756429,0.74893836813927184,-0.23777777777777778,-0.01666666666666667,0.09555555555555556,-2.72000000000000020,1.66999999999999993,9.97000000000000064,84.40000000000000568,84.40000000000000568,11.66899804800000062
2.05004477500915527,-96.42526740334680824,374.60120850500408096,31.58251191839854854,0.66227290970132935,-0.00068945598983438,0.00243947545912747,0.74925841115442759,-0.23777777777777778,-0.01666666666666667,0.09555555555555556,-2.72000000000000020,1.66999999999999993,9.97000000000000064,84.40000000000000568,84.40000000000000568,11.66899804800000062
2.06008791923522949,-97.20365171409866889,379.71173541952765618,31.57727487144693512,0.66152882573845306,-0.00168873824618788,0.00241002878174728,0.74991396349281991,-0.23777777777777778,-0.01666666666666667,0.09555555555555556,-2.72000000000000020,1.66999999999999993,9.97000000000000064,84.40000000000000568,84.40000000000000568,11.66899804800000062
2.07012271881103516,-97.74355769844957820,385.72824020425008484,31.85274362236035373,0.66153864027313147,-0.00158538691983631,0.00271492429547805,0.74990448935845178,-0.23777777777777778,-0.01666666666666667,0.09555555555555556,-2.72000000000000020,1.66999999999999993,9.97000000000000064,84.40000000000000568,84.40000000000000568,11.66899804800000062
2.08011126518249512,-98.09172851939185023,391.77627913218162803,31.90385406526965184,0.66139571881451886,-0.00220326281741534,0.00196753664410816,0.75003131772369125,0.01888888888888889,0.02000000000000000,0.10000000000000001,0.46999999999999997,2.79000000000000004,8.69999999999999929,84.40000000000000568,84.40000000000000568,11.68217219200000123
2.09011888504028320,-98.65956925020816470,397.21069067349685611,31.84193259914758301,0.66134827827531117,-0.00237819303856507,0.00205788268916889,0.75007237260079829,0.01888888888888889,0.02000000000000000,0.10000000000000001,0.46999999999999997,2.79000000000000004,8.69999999999999929,84.40000000000000568,84.40000000000000568,11.68217219200000123
2.10012030601501465,-99.71388373254831095,403.59403119994402687,31.93661899150611916,0.66101487477096377,-0.00159743577004367,0.00202676643562980,0.75036836003945595,0.01888888888888889,0.02000000000000000,0.10000000000000001,0.46999999999999997,2.79000000000000004,8.69999999999999929,84.40000000000000568,84.40000000000000568,11.68217219200000123
2.11025381088256836,-100.35009170118541988,409.51530734810921786,31.99661564674028114,0.66053176527157986,-0.00182050853268995,0.00204118321314534,0.75079311823363382,0.01888888888888889,0.02000000000000000,0.10000000000000001,0.46999999999999997,2.79000000000000004,8.69999999999999929,84.40000000000000568,84.40000000000000568,11.68217219200000123
2.12007308006286621,-101.02399874157875104,414.89569568991277038,31.82128077886197914,0.66026843429005422,-0.00189403001753586,0.00252589017516548,0.75102305371358324,0.01888888888888889,0.02000000000000000,0.10000000000000001,0.46999999999999997,2.79000000000000004,8.69999999999999929,84.40000000000000568,84.40000000000000568,11.68217219200000123
2.13013410568237305,-101.87379351407986405,420.93752686804174346,31.74045621350235891,0.65960715484122090,-0.00199850482359861,0.00255111432914930,0.75160355179869831,-0.04333333333333333,-0.04888888888888889,0.09666666666666666,2.56999999999999984,1.42999999999999994,5.58999999999999986,84.40000000000000568,84.40000000000000568,11.67887865600000019
2.14015078544616699,-102.78377871810100430,426.49409238609911199,31.92742486278305236,0.65894528195225688,-0.00181305454794534,0.00239651416147093,0.75218487418050384,-0.04333333333333333,-0.04888888888888889,0.09666666666666666,2.56999999999999984,1.42999999999999994,5.58999999999999986,84.40000000000000568,84.40000000000000568,11.67887865600000019
2.15012407302856445,-103.92322547534256216,432.58722573789162880,31.79936427310887481,0.65812830450612503,-0.00147986674300807,0.00274675351595207,0.75289932935780901,-0.04333333333333333,-0.04888888888888889,0.09666666666666666,2.56999999999999984,1.42999999999999994,5.58999999999999986,84.40000000000000568,84.40000000000000568,11.67887865600000019
2.16022706031799316,-104.83079396528239613,438.80579726968926479,31.82798275559576595,0.65765995646181585,-0.00150155459301643,0.00237398024550112,0.75330969144053928,-0.04333333333333333,-0.04888888888888889,0.09666666666666666,2.56999999999999984,1.42999999999999994,5.58999999999999986,84.40000000000000568,84.40000000000000568,11.67887865600000019
2.17011976242065430,-105.67076573294723119,444.25849548444028869,31.79955992755283134,0.65730498489214462,-0.00131008535620985,0.00249114349087728,0.75361942299572193,-0.04333333333333333,-0.04888888888888889,0.09666666666666666,2.56999999999999984,1.42999999999999994,5.58999999999999986,84.40000000000000568,84.40000000000000568,11.67887865600000019
2.18012928962707520,-106.55884944232525413,450.29329122934331053,31.86119106515189614,0.65688300065242677,-0.00121640309824738,0.00273401524739062,0.75398658408355934,0.03444444444444444,-0.00111111111111111,0.11777777777777777,1.02000000000000002,2.22999999999999998,9.09999999999999964,85.09999999999999432,85.09999999999999432,11.67229158399999989
2.19012093544006348,-107.48168993314179431,455.71768359196329357,31.85503897244413807,0.65637971208960855,-0.00112693917452121,0.00268207932593594,0.75442508575454259,0.03444444444444444,-0.00111111111111111,0.11777777777777777,1.02000000000000002,2.22999999999999998,9.09999999999999964,85.09999999999999432,85.09999999999999432,11.67229158399999989
2.20011806488037109,-108.19226958396946259,461.81672953901011169,31.88264913553023305,0.65618674945000899,-0.00088456689154420,0.00294035409703294,0.75459228839514991,0.03444444444444444,-0.00111111111111111,0.11777777777777777,1.02000000000000002,2.22999999999999998,9.09999999999999964,85.09999999999999432,85.09999999999999432,11.67229158399999989
2.21020841598510742,-109.31569032363138660,467.92460412202359521,32.09881851363139305,0.65517356365563639,-0.00025917903688692,0.00332750828158225,0.75547101996147847,0.03444444444444444,-0.00111111111111111,0.11777777777777777,1.02000000000000002,2.22999999999999998,9.09999999999999964,85.09999999999999432,85.09999999999999432,11.67229158399999989
2.22012853622436523,-109.53567261058499582,473.54462182610194532,32.49191098787227361,0.65487630648534734,-0.00017852208678819,0.00206196056927122,0.75573324635917960,0.03444444444444444,-0.00111111111111111,0.11777777777777777,1.02000000000000002,2.22999999999999998,9.09999999999999964,85.09999999999999432,85.09999999999999432,11.67229158399999989
2.23011875152587891,-110.64530263124417786,479.66453118256475818,32.36454741543955294,0.65432164633697143,0.00001570778662242,0.00258947319376193,0.75621192632536538,0.03444444444444444,-0.00111111111111111,0.11777777777777777,1.02000000000000002,2.22999999999999998,9.09999999999999964,85.09999999999999432,85.09999999999999432,11.67229158399999989
2.24012517929077148,-111.42736635193648453,485.26845387164411250,32.20061552885766787,0.65406143832507324,-0.00008048864810067,0.00224568919985766,0.75643809085590819,0.03444444444444444,-0.00111111111111111,0.11777777777777777,1.02000000000000002,2.22999999999999998,9.09999999999999964,85.09999999999999432,85.09999999999999432,11.67229158399999989
2.25011968612670898,-112.17746835041150177,491.30374180577240395,31.98087876594970069,0.65383681916649794,-0.00133781984481856,0.00185425882737336,0.75663213377737293,-0.01777777777777778,-0.02555555555555556,0.11111111111111110,0.46000000000000002,2.79999999999999982,9.27999999999999936,88.90000000000000568,88.90000000000000568,11.66570451199999958
2.26027774810791016,-113.22451951188266150,497.55617397618175346,32.22492982375698745,0.65369407701850224,-0.00052866856240884,0.00230829489667948,0.75675520874001878,-0.01777777777777778,-0.02555555555555556,0.11111111111111110,0.46000000000000002,2.79999999999999982,9.27999999999999936,88.90000000000000568,88.90000000000000568,11.66570451199999958
2.27007555961608887,-114.14354378388777889,503.21691142216701564,32.07043716381036802,0.65292168368285131,-0.00081494340320670,0.00211682634002878,0.75742202891799149,-0.01777777777777778,-0.02555555555555556,0.11111111111111110,0.46000000000000002,2.79999999999999982,9.27999999999999936,88.90000000000000568,88.90000000000000568,11.66570451199999958
2.28005051612854004,-114.99220339543516900,509.48129185293987575,32.19551689871399702,0.65212116140425835,-0.00126522273928944,0.00142916285161735,0.75811235813283284,-0.00888888888888889,-0.00666666666666667,0.11111111111111110,1.71999999999999997,1.60000000000000009,8.14000000000000057,89.59999999999999432,89.59999999999999432,11.77439120000000017
2.29002285003662109,-115.80148304739232401,515.27723633930565938,32.35545392900375106,0.65174658808229113,-0.00134824795444288,0.00077317171226199,0.75843521104709311,-0.00888888888888889,-0.00666666666666667,0.11111111111111110,1.71999999999999997,1.60000000000000009,8.14000000000000057,89.59999999999999432,89.59999999999999432,11.77439120000000017
2.30002498626708984,-116.81383646724991365,521.61610659856080474,32.36247397647303359,0.65139233749451597,-0.00155911245492983,0.00088716138886164,0.75873895693212812,-0.00888888888888889,-0.00666666666666667,0.11111111111111110,1.71999999999999997,1.60000000000000009,8.14000000000000057,89.59999999999999432,89.59999999999999432,11.77439120000000017
2.31005048751831055,-118.24629146455788486,528.01724845474825543,32.04429467333850567,0.65074221206015770,-0.00108074847853207,0.00194002537133600,0.75929549039049160,-0.00888888888888889,-0.00666666666666667,0.11111111111111110,1.71999999999999997,1.60000000000000009,8.14000000000000057,89.59999999999999432,89.59999999999999432,11.77439120000000017
2.32011103630065918,-118.88565065479546945,533.94501337368456007,32.08964792166067781,0.65052527219093603,-0.00136254649275592,0.00154587679266278,0.75948181279929661,-0.00888888888888889,-0.00666666666666667,0.11111111111111110,1.71999999999999997,1.60000000000000009,8.14000000000000057,89.59999999999999432,89.59999999999999432,11.77439120000000017
2.33005762100219727,-119.69346832731575603,540.60494666647684880,32.41704000293083254,0.65009973843512037,-0.00186506502926988,0.00056223475185415,0.75984638941769578,-0.00222222222222222,-0.00555555555555556,0.14111111111111110,-0.83999999999999997,1.35000000000000009,9.30000000000000071,85.29999999999999716,94.70000000000000284,11.65582390400000001
2.34004878997802734,-120.86099060746697376,546.28969332855945140,32.19967885852148015,0.64930975697720106,-0.00199454180198630,0.00122543255094788,0.76052045311896144,-0.00222222222222222,-0.00555555555555556,0.14111111111111110,-0.83999999999999997,1.35000000000000009,9.30000000000000071,85.29999999999999716,94.70000000000000284,11.65582390400000001
2.35010266304016113,-121.98650996352419895,552.90283106621370735,32.45133799047385281,0.64879278116335493,-0.00149835711338069,0.00105879344010275,0.76096291696292973,-0.00222222222222222,-0.00555555555555556,0.14111111111111110,-0.83999999999999997,1.35000000000000009,9.30000000000000071,85.29999999999999716,94.70000000000000284,11.65582390400000001
2.36013793945312500,-122.91493360795629997,559.32896072196228943,32.29062684538221362,0.64843194904631662,-0.00197990211117296,0.00094775674492956,0.76126945899646947,-0.00222222222222222,-0.00555555555555556,0.14111111111111110,-0.83999999999999997,1.35000000000000009,9.30000000000000071,85.29999999999999716,94.70000000000000284,11.65582390400000001
2.37012481689453125,-123.72225481845164552,565.11025403119356270,32.40262345846856817,0.64825378767584341,-0.00212571469533471,0.00114217129939763,0.76142051689305001,-0.00222222222222222,-0.00555555555555556,0.14111111111111110,-0.83999999999999997,1.35000000000000009,9.30000000000000071,85.29999999999999716,94.70000000000000284,11.65582390400000001
2.38014578819274902,-125.06683866829636997,571.70202856223193066,32.02898145712664757,0.64802564838369570,-0.00180675150612093,0.00173066007063697,0.76161440342315367,-0.00222222222222222,-0.00555555555555556,0.14111111111111110,-0.83999999999999997,1.35000000000000009,9.30000000000000071,85.29999999999999716,94.70000000000000284,11.65582390400000001
2.39012122154235840,-126.05058748659455148,577.70189071648871959,31.99193326036197504,0.64807977413638207,-0.00149469727405182,0.00196506741872843,0.76156845440540311,0.25222222222222224,0.03333333333333333,0.13666666666666666,2.41999999999999993,1.61000000000000010,12.26999999999999957,78.50000000000000000,100.00000000000000000,11.67887865600000019
2.40012145042419434,-126.78801357098906522,584.39625219697393277,31.89200434638920356,0.64830866158310596,-0.00195559952600930,0.00142785936316181,0.76137376902836296,0.25222222222222224,0.03333333333333333,0.13666666666666666,2.41999999999999993,1.61000000000000010,12.26999999999999957,78.50000000000000000,100.00000000000000000,11.67887865600000019
2.41007590293884277,-127.98592459218014028,590.28530311477652504,31.96277300063913174,0.64794426466229937,-0.00209945938054457,0.00118410582684296,0.76168393711232518,0.25222222222222224,0.03333333333333333,0.13666666666666666,2.41999999999999993,1.61000000000000010,12.26999999999999957,78.50000000000000000,100.00000000000000000,11.67887865600000019
2.42009067535400391,-129.19720077964629468,596.93719881630408963,31.95763841416881235,0.64812943893842501,-0.00195175675289726,0.00123300329431142,0.76152669075339507,0.25222222222222224,0.03333333333333333,0.13666666666666666,2.41999999999999993,1.61000000000000010,12.26999999999999957,78.50000000000000000,100.00000000000000000,11.67887865600000019
2.43006992340087891,-130.01254675256370774,603.45246091516980869,31.61548278265368950,0.64908755746158053,-0.00203978489049723,0.00172795869639838,0.76070900887586679,0.02666666666666667,0.18666666666666668,0.02888888888888889,2.62000000000000011,2.25999999999999979,8.50000000000000000,77.79999999999999716,100.00000000000000000,11.67558512000000093
2.44004940986633301,-130.67893029267159477,609.24986997047017212,31.63033575383901663,0.64995917336983300,-0.00215273089603262,0.00192356540907852,0.75996364294498298,0.02666666666666667,0.18666666666666668,0.02888888888888889,2.62000000000000011,2.25999999999999979,8.50000000000000000,77.79999999999999716,100.00000000000000000,11.67558512000000093
2.45006537437438965,-131.59686654705822662,616.01594865721233418,31.91532829687713502,0.65105727870763663,-0.00207503709512079,0.00058128296206815,0.75902554382114118,0.02666666666666667,0.18666666666666668,0.02888888888888889,2.62000000000000011,2.25999999999999979,8.50000000000000000,77.79999999999999716,100.00000000000000000,11.67558512000000093
2.46005916595458984,-132.73573423229149171,621.71876945992914898,31.79962640006145236,0.65177436914836018,-0.00210813816361299,0.00116139056205967,0.75840911033999459,0.02666666666666667,0.18666666666666668,0.02888888888888889,2.62000000000000011,2.25999999999999979,8.50000000000000000,77.79999999999999716,100.00000000000000000,11.67558512000000093
2.47008752822875977,-133.29856522155034781,628.32475466434016198,31.57703616774344724,0.65309917802263640,-0.00246478751390348,0.00078195224718784,0.75726796910958172,0.02666666666666667,0.18666666666666668,0.02888888888888889,2.62000000000000011,2.25999999999999979,8.50000000000000000,77.79999999999999716,100.00000000000000000,11.67558512000000093
2.48017358779907227,-134.11011545886228191,635.32328450435250033,31.56693221096665880,0.65424400079353340,-0.00199087894845779,0.00008316998378187,0.75628091137449560,0.02000000000000000,0.05555555555555555,-0.21222222222222223,-0.23000000000000001,1.97999999999999998,10.44999999999999929,77.79999999999999716,100.00000000000000000,11.66899804800000062
2.49008607864379883,-135.39093136289275776,641.35361466499296057,31.63160184830283939,0.65493788187663127,-0.00136327380995411,0.00008567876563637,0.75568148384529044,0.02000000000000000,0.05555555555555555,-0.21222222222222223,-0.23000000000000001,1.97999999999999998,10.44999999999999929,77.79999999999999716,100.00000000000000000,11.66899804800000062
2.50017380714416504,-136.36554919171626921,647.69467718577925552,31.51613825037992456,0.65584799054424736,-0.00148848007797028,0.00021979406699666,0.75489148188113664,0.02000000000000000,0.05555555555555555,-0.21222222222222223,-0.23000000000000001,1.97999999999999998,10.44999999999999929,77.79999999999999716,100.00000000000000000,11.66899804800000062
2.51005077362060547,-137.15251191323008584,654.18662518519818150,31.66026063825109205,0.65689789318432401,-0.00130330081499515,0.00017985540840916,0.75397839955068602,0.02000000000000000,0.05555555555555555,-0.21222222222222223,-0.23000000000000001,1.97999999999999998,10.44999999999999929,77.79999999999999716,100.00000000000000000,11.66899804800000062
2.52010393142700195,-137.87989752602496196,660.05877702586951727,31.38842936234035719,0.65796808026485309,-0.00165450335009014,0.00001881266752814,0.75304400111635694,0.02000000000000000,0.05555555555555555,-0.21222222222222223,-0.23000000000000001,1.97999999999999998,10.44999999999999929,77.79999999999999716,100.00000000000000000,11.66899804800000062
2.53005814552307129,-138.69226819105600157,666.40852710916351498,31.24706918817676282,0.65947344984404732,-0.00152601738564880,0.00095237292347214,0.75172570343679457,0.02000000000000000,0.05555555555555555,-0.21222222222222223,-0.23000000000000001,1.97999999999999998,10.44999999999999929,77.79999999999999716,100.00000000000000000,11.66899804800000062
2.54004096984863281,-139.30962340736382998,672.27273764487938479,31.11668807682242388,0.66067595510279531,-0.00136658130461980,0.00122557428444202,0.75066897682814948,0.00666666666666667,0.03333333333333333,-0.31666666666666665,0.56999999999999995,0.77000000000000002,11.81000000000000050,76.29999999999999716,100.00000000000000000,11.65253036800000075
2.55003809928894043,-140.29876816741330003,678.87703619878914196,31.00339526503455900,0.66196710887702914,-0.00150856893721122,0.00123456823041506,0.74953035083713127,0.00666666666666667,0.03333333333333333,-0.31666666666666665,0.56999999999999995,0.77000000000000002,11.81000000000000050,76.29999999999999716,100.00000000000000000,11.65253036800000075
2.55999183654785156,-140.70305802660209338,685.39132266248577707,31.21470895382311994,0.66345436006926362,-0.00174619131298391,0.00110478170052723,0.74821390148698608,0.00666666666666667,0.03333333333333333,-0.31666666666666665,0.56999999999999995,0.77000000000000002,11.81000000000000050,76.29999999999999716,100.00000000000000000,11.65253036800000075
2.57009148597717285,-141.37505346649462012,691.11505359882528410,30.97964355000927128,0.66445754161799131,-0.00226294288839697,0.00096350217036600,0.74732196952854768,0.00666666666666667,0.03333333333333333,-0.31666666666666665,0.56999999999999995,0.77000000000000002,11.81000000000000050,76.29999999999999716,100.00000000000000000,11.65253036800000075
2.58006215095520020,-142.17763440160754840,697.61938300004248958,30.99340608591589685,0.66558166411193509,-0.00216847183130222,0.00109785205616961,0.74632107088622834,0.00666666666666667,0.03333333333333333,-0.31666666666666665,0.56999999999999995,0.77000000000000002,11.81000000000000050,76.29999999999999716,100.00000000000000000,11.65253036800000075
2.59006333351135254,-142.90569053234798957,703.29713756293404003,30.82113725768843082,0.66673419235823617,-0.00206260187373128,0.00166275732835206,0.74529088123496290,0.00666666666666667,0.06888888888888889,-0.33222222222222220,-1.09000000000000008,0.60999999999999999,11.17999999999999972,53.39999999999999858,98.90000000000000568,11.69205280000000080
2.60002636909484863,-143.39227314304901029,709.81282747482634932,30.77387734271287556,0.66790211474053884,-0.00275848103512962,0.00149562664724350,0.74424251357230753,0.00666666666666667,0.06888888888888889,-0.33222222222222220,-1.09000000000000008,0.60999999999999999,11.17999999999999972,53.39999999999999858,98.90000000000000568,11.69205280000000080
2.61001133918762207,-143.96328953070721468,716.32101206317918241,30.70999571503049808,0.66981220548149945,-0.00232314089778225,0.00178548448184551,0.74252476352613617,0.00666666666666667,0.06888888888888889,-0.33222222222222220,-1.09000000000000008,0.60999999999999999,11.17999999999999972,53.39999999999999858,98.90000000000000568,11.69205280000000080
2.62009859085083008,-144.45353650530083200,721.85198687556794539,30.43619159051274892,0.67173408785196376,-0.00258507189467271,0.00282021124548088,0.74078247753947368,0.00666666666666667,0.06888888888888889,-0.33222222222222220,-1.09000000000000008,0.60999999999999999,11.17999999999999972,53.39999999999999858,98.90000000000000568,11.69205280000000080
2.63016891479492188,-144.68178788992176464,727.85246983289482614,30.31911406662972297,0.67423369061130500,-0.00297164819262661,0.00280222807963853,0.73850676860098430,-0.17666666666666667,-0.00444444444444444,-0.35777777777777775,-0.48999999999999999,0.23999999999999999,10.38000000000000078,52.29999999999999716,98.50000000000000000,11.73486876800000012
2.64011931419372559,-145.15722868022086800,732.99679116558138503,30.22611099007410829,0.67675549165294280,-0.00356583815564835,0.00286205252276631,0.73619365520981506,-0.17666666666666667,-0.00444444444444444,-0.35777777777777775,-0.48999999999999999,0.23999999999999999,10.38000000000000078,52.29999999999999716,98.50000000000000000,11.73486876800000012
2.65012526512145996,-145.64105617544291249,738.55490767866501756,30.23916038154694874,0.67958057128270943,-0.00405998115648132,0.00278862483332659,0.73358434229447256,-0.17666666666666667,-0.00444444444444444,-0.35777777777777775,-0.48999999999999999,0.23999999999999999,10.38000000000000078,52.29999999999999716,98.50000000000000000,11.73486876800000012
2.66023898124694824,-145.91872535136695888,744.10139551871714048,30.08323948928959624,0.68243306835326756,-0.00455463299821331,0.00294580299898663,0.73092796141677818,-0.17666666666666667,-0.00444444444444444,-0.35777777777777775,-0.48999999999999999,0.23999999999999999,10.38000000000000078,52.29999999999999716,98.50000000000000000,11.73486876800000012
2.67012166976928711,-145.99671795726112578,749.18262616634831375,30.36923902810836751,0.68491854267855334,-0.00458355739095637,0.00257088408236083,0.72860069410601414,-0.17666666666666667,-0.00444444444444444,-0.35777777777777775,-0.48999999999999999,0.23999999999999999,10.38000000000000078,52.29999999999999716,98.50000000000000000,11.73486876800000012
2.68012428283691406,-145.91359846565481462,754.61162006990764439,30.12750260906407718,0.68818131599533505,-0.00492414495578793,0.00275006610383251,0.72551682699149522,0.28111111111111109,-0.07666666666666666,-0.76666666666666672,2.37000000000000011,1.35000000000000009,9.55000000000000071,52.29999999999999716,98.50000000000000000,11.69534633600000006
2.69011902809143066,-146.10434019496628366,759.54798553592991084,30.22985351086302686,0.69070255826289273,-0.00455142554826483,0.00330469889565301,0.72311709943810820,0.28111111111111109,-0.07666666666666666,-0.76666666666666672,2.37000000000000011,1.35000000000000009,9.55000000000000071,52.29999999999999716,98.50000000000000000,11.69534633600000006
2.70007443428039551,-146.15898633874311940,765.08228915699135086,30.22249874717611817,0.69361272839537991,-0.00465101069950714,0.00320640484224828,0.72032594710684783,0.28111111111111109,-0.07666666666666666,-0.76666666666666672,2.37000000000000011,1.35000000000000009,9.55000000000000071,52.29999999999999716,98.50000000000000000,11.69534633600000006
2.71004676818847656,-146.38350107625652186,770.77450159284853726,30.18770470058991506,0.69617273046519901,-0.00479009136965457,0.00306207499516181,0.71785180091577716,0.28111111111111109,-0.07666666666666666,-0.76666666666666672,2.37000000000000011,1.35000000000000009,9.55000000000000071,52.29999999999999716,98.50000000000000000,11.69534633600000006
2.72009277343750000,-146.54656336730451471,775.65692271602131314,30.29025426367373441,0.69877237715743379,-0.00430555709130265,0.00367002993750976,0.71532171641866182,0.28111111111111109,-0.07666666666666666,-0.76666666666666672,2.37000000000000011,1.35000000000000009,9.55000000000000071,52.29999999999999716,98.50000000000000000,11.69534633600000006
2.73011779785156250,-146.43436392195215490,780.99565877753036602,30.45253772238980616,0.70137958277600687,-0.00454179221843840,0.00368872431279176,0.71276394851405289,0.07000000000000001,-0.04000000000000000,-0.77888888888888885,-1.15999999999999992,0.50000000000000000,9.28999999999999915,52.29999999999999716,98.50000000000000000,11.68217219200000123
2.74007487297058105,-146.40801858057875506,785.73937213546253133,30.58904506244009269,0.70376858332369441,-0.00443220576685072,0.00401851464788686,0.71040410205644589,0.07000000000000001,-0.04000000000000000,-0.77888888888888885,-1.15999999999999992,0.50000000000000000,9.28999999999999915,52.29999999999999716,98.50000000000000000,11.68217219200000123
2.75014114379882812,-146.33090603448837896,791.15247430405042905,30.55118126762517150,0.70662462922474290,-0.00430022437535139,0.00408768410617124,0.70756373019111474,0.07000000000000001,-0.04000000000000000,-0.77888888888888885,-1.15999999999999992,0.50000000000000000,9.28999999999999915,52.29999999999999716,98.50000000000000000,11.68217219200000123
2.76005172729492188,-146.21299805066516342,796.40936663248828609,30.38648988556071018,0.70947772595019420,-0.00435079942206414,0.00448534608817675,0.70470015509817996,0.07000000000000001,-0.04000000000000000,-0.77888888888888885,-1.15999999999999992,0.50000000000000000,9.28999999999999915,52.29999999999999716,98.50000000000000000,11.68217219200000123
2.77011179924011230,-145.93075846782940630,801.34810609927637870,30.43635589795661645,0.71221616737179072,-0.00485563006810149,0.00404935902263888,0.70193173206686199,0.07000000000000001,-0.04000000000000000,-0.77888888888888885,-1.15999999999999992,0.50000000000000000,9.28999999999999915,52.29999999999999716,98.50000000000000000,11.68217219200000123
2.78008365631103516,-145.96083224538253376,806.77569930970969381,30.37215106825460609,0.71504510375420427,-0.00422898110357015,0.00498771443830016,0.69904773658216435,0.00777777777777778,0.04444444444444445,-0.81111111111111112,0.93999999999999995,1.47999999999999998,7.62000000000000011,52.29999999999999716,98.50000000000000000,11.69863987200000111
2.79005956649780273,-145.56470209336745825,811.68318503129921737,30.47072565198726224,0.71804785228874690,-0.00394707370684884,0.00519350797934797,0.69596316706240946,0.00777777777777778,0.04444444444444445,-0.81111111111111112,0.93999999999999995,1.47999999999999998,7.62000000000000011,52.29999999999999716,98.50000000000000000,11.69863987200000111
2.80010867118835449,-145.37154850569859832,817.08200988602823145,30.30429826608174793,0.72092699660706028,-0.00423832904904916,0.00534976843892538,0.69297740374967887,0.00777777777777778,0.04444444444444445,-0.81111111111111112,0.93999999999999995,1.47999999999999998,7.62000000000000011,52.29999999999999716,98.50000000000000000,11.69863987200000111
2.81018376350402832,-144.96088037105914736,822.45919668052556517,30.07187084223768636,0.72434997547183089,-0.00449900992411916,0.00483641880293831,0.68940081302303613,0.00777777777777778,0.04444444444444445,-0.81111111111111112,0.93999999999999995,1.47999999999999998,7.62000000000000011,52.29999999999999716,98.50000000000000000,11.69863987200000111
2.82012081146240234,-144.59737116450537542,827.27165684730823614,29.89904313032303307,0.72732458164184510,-0.00477709963503007,0.00445467907573863,0.68626255040831419,0.00777777777777778,0.04444444444444445,-0.81111111111111112,0.93999999999999995,1.47999999999999998,7.62000000000000011,52.29999999999999716,98.50000000000000000,11.69863987200000111
2.83011794090270996,-144.24697125631610106,832.62709412858350788,29.96622121742825584,0.73036605059528947,-0.00434651051696917,0.00469062401069085,0.68302601563231513,0.00777777777777778,0.04444444444444445,-0.81111111111111112,0.93999999999999995,1.47999999999999998,7.62000000000000011,52.29999999999999716,98.50000000000000000,11.69863987200000111
2.84011816978454590,-144.08823227301522252,837.43324306120086931,29.90656656605740338,0.73285618713771983,-0.00408660355975221,0.00463598422008316,0.68035550728690386,0.04222222222222222,-0.23777777777777778,-0.88444444444444448,0.12000000000000000,1.54000000000000004,10.01999999999999957,52.29999999999999716,98.50000000000000000,11.57348550400000065
2.85011863708496094,-143.34148535547487313,842.90932123095944917,29.91307831370470183,0.73586992354679392,-0.00430896515434164,0.00485109913638414,0.67709183666302131,0.04222222222222222,-0.23777777777777778,-0.88444444444444448,0.12000000000000000,1.54000000000000004,10.01999999999999957,52.29999999999999716,98.50000000000000000,11.57348550400000065
2.86036419868469238,-142.58115517967488017,848.32658203803987362,29.89021559228613611,0.73877656729304564,-0.00423947901866392,0.00531517969218934,0.67391613669743355,0.04222222222222222,-0.23777777777777778,-0.88444444444444448,0.12000000000000000,1.54000000000000004,10.01999999999999957,52.29999999999999716,98.50000000000000000,11.57348550400000065
2.87007761001586914,-142.29201611954516693,853.21710408913656920,29.78637509046802379,0.74104632395127445,-0.00384861297217543,0.00574087721076462,0.67141833179124899,0.04222222222222222,-0.23777777777777778,-0.88444444444444448,0.12000000000000000,1.54000000000000004,10.01999999999999957,52.29999999999999716,98.50000000000000000,11.57348550400000065
2.88011717796325684,-141.79683280364355369,858.61567267736529629,29.91885408132858615,0.74353653714264123,-0.00373387313810881,0.00575906060734061,0.66866008505535823,0.01888888888888889,0.01555555555555556,-0.57999999999999996,-3.66000000000000014,0.23999999999999999,14.36999999999999922,59.00000000000000000,100.00000000000000000,11.69205280000000080
2.89009642601013184,-141.18466761772685913,863.49624831039045603,30.11085758572619397,0.74586902132746646,-0.00360822142692798,0.00540341723475531,0.66606094829552109,0.01888888888888889,0.01555555555555556,-0.57999999999999996,-3.66000000000000014,0.23999999999999999,14.36999999999999922,59.00000000000000000,100.00000000000000000,11.69205280000000080
2.90011334419250488,-140.45677764562753964,868.72767165199059036,30.15609964358551665,0.74858716804375391,-0.00322267167530587,0.00603792740457332,0.66300106309127671,0.01888888888888889,0.01555555555555556,-0.57999999999999996,-3.66000000000000014,0.23999999999999999,14.36999999999999922,59.00000000000000000,100.00000000000000000,11.69205280000000080
2.91004824638366699,-139.80280095279303509,874.26982908089314606,30.15078248408435613,0.75136549343003167,-0.00273851699732465,0.00643422193231974,0.65984922262243140,0.01888888888888889,0.01555555555555556,-0.57999999999999996,-3.66000000000000014,0.23999999999999999,14.36999999999999922,59.00000000000000000,100.00000000000000000,11.69205280000000080
2.92010116577148438,-138.94449817694018634,879.18314983516836492,30.07422031838384058,0.75374076823256897,-0.00270838053850218,0.00657399816297776,0.65713339705663099,0.01888888888888889,0.01555555555555556,-0.57999999999999996,-3.66000000000000014,0.23999999999999999,14.36999999999999922,59.00000000000000000,100.00000000000000000,11.69205280000000080
2.93007040023803711,-137.84564568176827493,884.81190201205163248,29.92868993323558513,0.75629244660740713,-0.00328920329535821,0.00616813997927891,0.65419635461798498,0.05444444444444444,-0.00222222222222222,-0.81888888888888889,-0.55000000000000004,1.84000000000000008,8.35999999999999943,59.79999999999999716,100.00000000000000000,11.67229158399999989
2.93999075889587402,-136.74141561417832236,889.94877180089815738,30.04250382339381531,0.75866491086678101,-0.00329410057905499,0.00550137167566333,0.65144948908611566,0.05444444444444444,-0.00222222222222222,-0.81888888888888889,-0.55000000000000004,1.84000000000000008,8.35999999999999943,59.79999999999999716,100.00000000000000000,11.67229158399999989
2.95004391670227051,-136.13622871240349355,895.62607931385036864,30.07019460025400193,0.76064083620332312,-0.00337741623595185,0.00560596549245750,0.64913995756722254,0.05444444444444444,-0.00222222222222222,-0.81888888888888889,-0.55000000000000004,1.84000000000000008,8.35999999999999943,59.79999999999999716,100.00000000000000000,11.67229158399999989
2.96002197265625000,-135.17747561130752842,901.37002608502643852,30.01429220096145301,0.76297106211934973,-0.00323944962563871,0.00556298574214708,0.64640058595597449,0.05444444444444444,-0.00222222222222222,-0.81888888888888889,-0.55000000000000004,1.84000000000000008,8.35999999999999943,59.79999999999999716,100.00000000000000000,11.67229158399999989
2.97009658813476562,-134.74938341168308398,906.53957145200376999,30.21351058321068805,0.76463839877334372,-0.00239537717811653,0.00575207081404536,0.64442943366272587,0.05444444444444444,-0.00222222222222222,-0.81888888888888889,-0.55000000000000004,1.84000000000000008,8.35999999999999943,59.79999999999999716,100.00000000000000000,11.67229158399999989
2.98015570640563965,-133.55617127857053106,912.10815509762085185,29.83856295097836764,0.76709889689310562,-0.00255922554574233,0.00586929994036388,0.64149690885318866,0.05444444444444444,-0.00222222222222222,-0.81888888888888889,-0.55000000000000004,1.84000000000000008,8.35999999999999943,59.79999999999999716,100.00000000000000000,11.67229158399999989
2.99006056785583496,-132.26657728374411249,917.73744428668726414,29.92091063807059825,0.76970127580074232,-0.00285781193313143,0.00585145062879953,0.63837100456333640,0.06555555555555556,-0.04111111111111111,-0.72999999999999998,0.40000000000000002,1.84000000000000008,8.30000000000000071,76.59999999999999432,100.00000000000000000,11.67229158399999989
3.00003266334533691,-131.43958979818927446,922.85912583293327316,29.85836709756247842,0.77168760904351363,-0.00281229096277508,0.00604926741929204,0.63596676912550698,0.06555555555555556,-0.04111111111111111,-0.72999999999999998,0.40000000000000002,1.84000000000000008,8.30000000000000071,76.59999999999999432,100.00000000000000000,11.67229158399999989
3.01001071929931641,-129.96937440697692523,928.57454958252913002,29.59067273718703817,0.77387385530583241,-0.00368330851598487,0.00545143086252497,0.63330559070168857,0.06555555555555556,-0.04111111111111111,-0.72999999999999998,0.40000000000000002,1.84000000000000008,8.30000000000000071,76.59999999999999432,100.00000000000000000,11.67229158399999989
3.02005290985107422,-128.52570755288428472,933.73017886944398924,29.68561781691936474,0.77599166550623311,-0.00380624964237261,0.00509166846686072,0.63071112439907495,0.06555555555555556,-0.04111111111111111,-0.72999999999999998,0.40000000000000002,1.84000000000000008,8.30000000000000071,76.59999999999999432,100.00000000000000000,11.67229158399999989
3.03003764152526855,-127.39081305055674420,939.49366606108742417,29.81879752354780067,0.77791934021045317,-0.00313208434840482,0.00531971967731292,0.62833382111479741,0.06555555555555556,-0.04111111111111111,-0.72999999999999998,0.40000000000000002,1.84000000000000008,8.30000000000000071,76.59999999999999432,100.00000000000000000,11.67229158399999989
3.04010081291198730,-126.41176450751770233,944.78480744954242709,29.79759423703155718,0.77926623140338935,-0.00305375621288213,0.00548837122394450,0.62666154577144728,-0.03333333333333333,0.03000000000000000,-0.73333333333333328,-2.02999999999999980,2.20999999999999996,5.91000000000000014,80.00000000000000000,100.00000000000000000,11.62288854400000027
3.05012106895446777,-125.21810488225088420,950.83446533125288624,29.76825449412980262,0.78059975411814297,-0.00280265045170539,0.00553035015344382,0.62500046739848181,-0.03333333333333333,0.03000000000000000,-0.73333333333333328,-2.02999999999999980,2.20999999999999996,5.91000000000000014,80.00000000000000000,100.00000000000000000,11.62288854400000027
3.06004953384399414,-122.95852836329812874,956.96097479144134468,30.18619258626393886,0.78262563754936987,-0.00283428007837451,0.00481996706251030,0.62246754632221257,-0.03333333333333333,0.03000000000000000,-0.73333333333333328,-2.02999999999999980,2.20999999999999996,5.91000000000000014,80.00000000000000000,100.00000000000000000,11.62288854400000027
3.07016587257385254,-121.60444452044369257,962.52501437450382582,30.37790533774749235,0.78389301470260964,-0.00249384770547680,0.00468881460177840,0.62087320544673685,-0.03333333333333333,0.03000000000000000,-0.73333333333333328,-2.02999999999999980,2.20999999999999996,5.91000000000000014,80.00000000000000000,100.00000000000000000,11.62288854400000027
3.08006167411804199,-119.62099581373247759,968.79874792953648921,30.16950418570976922,0.78545092292814234,-0.00262424822082327,0.00503110635791286,0.61889793097199786,-0.03333333333333333,0.03000000000000000,-0.73333333333333328,-2.02999999999999980,2.20999999999999996,5.91000000000000014,80.00000000000000000,100.00000000000000000,11.62288854400000027
3.09015154838562012,-117.68379853167215288,974.32291840578625397,29.87691965953560214,0.78680850235574340,-0.00387446329069023,0.00443484027619538,0.61716910271549219,0.05555555555555555,-0.12666666666666668,-0.47777777777777780,1.39999999999999991,0.76000000000000001,12.46000000000000085,83.40000000000000568,96.59999999999999432,11.64594329600000044
3.10010051727294922,-115.94171901811021996,980.86105909363823230,30.05214515811321974,0.78801405872470542,-0.00400254050421774,0.00397086676941587,0.61563142799797632,0.05555555555555555,-0.12666666666666668,-0.47777777777777780,1.39999999999999991,0.76000000000000001,12.46000000000000085,83.40000000000000568,96.59999999999999432,11.64594329600000044
3.11004543304443359,-113.73389093885656109,986.96663508658537012,29.97476753619426049,0.78941644627005225,-0.00532169692894359,0.00347408149416941,0.61382512546973012,0.05555555555555555,-0.12666666666666668,-0.47777777777777780,1.39999999999999991,0.76000000000000001,12.46000000000000085,83.40000000000000568,96.59999999999999432,11.64594329600000044
3.12010812759399414,-111.98638599843691566,992.81537096879094406,30.37207521203162131,0.79037823749977498,-0.00529747272758882,0.00216422772868426,0.61259243758618831,0.05555555555555555,-0.12666666666666668,-0.47777777777777780,1.39999999999999991,0.76000000000000001,12.46000000000000085,83.40000000000000568,96.59999999999999432,11.64594329600000044
3.13017463684082031,-110.63399203856029374,999.26793097140250666,30.33980719025556638,0.79078253939982301,-0.00441406509623835,0.00311868569036205,0.61207333319566992,0.05555555555555555,-0.12666666666666668,-0.47777777777777780,1.39999999999999991,0.76000000000000001,12.46000000000000085,83.40000000000000568,96.59999999999999432,11.64594329600000044
3.14019966125488281,-109.32833383900408819,1004.97217586856049820,30.39544873458688912,0.79127032651902784,-0.00408363500885829,0.00322888144420448,0.61144432994362197,-0.02444444444444445,0.04222222222222222,-0.31777777777777777,-0.80000000000000004,1.13999999999999990,7.91000000000000014,89.00000000000000000,91.00000000000000000,11.66899804800000062
3.15019607543945312,-107.53791601182257409,1011.48162231506046282,30.63139955332096065,0.79185859172629591,-0.00402164823739057,0.00276248466670950,0.61068499714105340,-0.02444444444444445,0.04222222222222222,-0.31777777777777777,-0.80000000000000004,1.13999999999999990,7.91000000000000014,89.00000000000000000,91.00000000000000000,11.66899804800000062
3.16018271446228027,-105.81281935315399778,1018.00321339627225825,30.87710885710878017,0.79233741091972998,-0.00455931432214081,0.00178378045742947,0.61006348689067635,-0.02444444444444445,0.04222222222222222,-0.31777777777777777,-0.80000000000000004,1.13999999999999990,7.91000000000000014,89.00000000000000000,91.00000000000000000,11.66899804800000062
3.17020010948181152,-104.22090204969269678,1023.87690005724016373,30.73240674677289519,0.79286872196153624,-0.00464404382648867,0.00188681334331848,0.60937185898876611,-0.02444444444444445,0.04222222222222222,-0.31777777777777777,-0.80000000000000004,1.13999999999999990,7.91000000000000014,89.00000000000000000,91.00000000000000000,11.66899804800000062
3.18014621734619141,-102.58377025309214048,1030.33814751233580864,30.64867475131855201,0.79295427768898374,-0.00474427845056966,0.00213320819456959,0.60925893899024897,-0.02444444444444445,0.04222222222222222,-0.31777777777777777,-0.80000000000000004,1.13999999999999990,7.91000000000000014,89.00000000000000000,91.00000000000000000,11.66899804800000062
3.19012498855590820,-101.19253082079056583,1036.17678937626556035,30.23916499784712997,0.79302395835235795,-0.00450367566218822,0.00274344535108835,0.60916762216346743,-0.04777777777777778,-0.04111111111111111,-0.18111111111111111,-0.89000000000000001,2.04000000000000004,10.33999999999999986,90.00000000000000000,90.00000000000000000,11.69534633600000006
3.20007109642028809,-99.99518124025934185,1042.82130041785671892,30.42012364887593279,0.79260598119929171,-0.00400719948598303,0.00254309335783276,0.60971569899057132,-0.04777777777777778,-0.04111111111111111,-0.18111111111111111,-0.89000000000000001,2.04000000000000004,10.33999999999999986,90.00000000000000000,90.00000000000000000,11.69534633600000006
3.21002316474914551,-98.41950228771202092,1049.24443191392379049,30.48101532462673546,0.79219727535186912,-0.00428818128948908,0.00206928021937918,0.61024651289923604,-0.04777777777777778,-0.04111111111111111,-0.18111111111111111,-0.89000000000000001,2.04000000000000004,10.33999999999999986,90.00000000000000000,90.00000000000000000,11.69534633600000006
3.22009921073913574,-96.61367135884916024,1055.00280248439412389,30.66219773850188801,0.79225804653141085,-0.00425813066263055,0.00187390322117370,0.61016845585150570,-0.04777777777777778,-0.04111111111111111,-0.18111111111111111,-0.89000000000000001,2.04000000000000004,10.33999999999999986,90.00000000000000000,90.00000000000000000,11.69534633600000006
3.23005914688110352,-94.98050679864157075,1061.39806324422011130,30.58899314790278723,0.79208375972039924,-0.00410530905758954,0.00184111940316048,0.61039583411429144,-0.03555555555555556,0.01333333333333333,-0.07444444444444444,-1.43999999999999995,1.73999999999999999,5.91000000000000014,90.00000000000000000,90.00000000000000000,11.66899804800000062
3.24009728431701660,-93.44177628339771502,1067.12868361161918074,30.75696395964231655,0.79205998841973768,-0.00361959338880363,0.00201544287289376,0.61042920251102883,-0.03555555555555556,0.01333333333333333,-0.07444444444444444,-1.43999999999999995,1.73999999999999999,5.91000000000000014,90.00000000000000000,90.00000000000000000,11.66899804800000062
3.25021338462829590,-91.77902520647633366,1073.39780228640211135,30.66703498286814167,0.79188453076581700,-0.00415218367401424,0.00219797393602597,0.61065278040398296,-0.03555555555555556,0.01333333333333333,-0.07444444444444444,-1.43999999999999995,1.73999999999999999,5.91000000000000014,90.00000000000000000,90.00000000000000000,11.66899804800000062
3.26002597808837891,-90.06095739524312194,1079.92979454475880630,30.65312159399097425,0.79163859178050999,-0.00423197716015508,0.00137431691606865,0.61097343774185564,-0.03555555555555556,0.01333333333333333,-0.07444444444444444,-1.43999999999999995,1.73999999999999999,5.91000000000000014,90.00000000000000000,90.00000000000000000,11.66899804800000062
3.27008891105651855,-88.91448594616609569,1085.75724871656734649,30.46929499761279203,0.79118926463418371,-0.00401111541388778,0.00201765228838941,0.61155489333337831,-0.03555555555555556,0.01333333333333333,-0.07444444444444444,-1.43999999999999995,1.73999999999999999,5.91000000000000014,90.00000000000000000,90.00000000000000000,11.66899804800000062
3.28015351295471191,-87.08998846176420727,1092.10655425948243646,30.37259889500700538,0.79119858947818766,-0.00437735282908439,0.00167770166304766,0.61154134456066511,-0.02222222222222222,-0.02111111111111111,0.06555555555555556,1.37999999999999989,0.56999999999999995,12.06000000000000050,90.00000000000000000,90.00000000000000000,11.66241097600000032
3.29022097587585449,-85.56444067094203376,1097.85911141075280284,30.45928145817218891,0.79091688323917420,-0.00484797879564779,0.00139960697078985,0.61190278803839016,-0.02222222222222222,-0.02111111111111111,0.06555555555555556,1.37999999999999989,0.56999999999999995,12.06000000000000050,90.00000000000000000,90.00000000000000000,11.66241097600000032
3.30013084411621094,-83.97541118927891546,1104.43595189547363589,30.33877341838772779,0.79071698675166868,-0.00522312605820229,0.00116821168611847,0.61215847711029736,-0.02222222222222222,-0.02111111111111111,0.06555555555555556,1.37999999999999989,0.56999999999999995,12.06000000000000050,90.00000000000000000,90.00000000000000000,11.66241097600000032
3.30999207496643066,-82.26713417985801868,1110.75918820948504617,30.29288115806696169,0.79036509938947797,-0.00565635293891464,0.00102958789627748,0.61260913745001777,-0.02222222222222222,-0.02111111111111111,0.06555555555555556,1.37999999999999989,0.56999999999999995,12.06000000000000050,90.00000000000000000,90.00000000000000000,11.66241097600000032
3.32003498077392578,-80.70045617142717731,1116.60951377023047826,30.21716964034095554,0.79017910220420107,-0.00592865253558789,0.00065782879311626,0.61284696685237328,-0.02222222222222222,-0.02111111111111111,0.06555555555555556,1.37999999999999989,0.56999999999999995,12.06000000000000050,90.00000000000000000,90.00000000000000000,11.66241097600000032
3.33013772964477539,-79.09918886788985048,1123.15484613450280449,30.12192775623165986,0.78984820402769640,-0.00614323545424497,0.00048315216193929,0.61327142589261796,0.04777777777777778,-0.02111111111111111,0.11000000000000000,-1.61000000000000010,1.38999999999999990,12.21000000000000085,90.00000000000000000,90.00000000000000000,11.67887865600000019
3.34010624885559082,-77.68519472628298672,1128.80971722675144520,30.21591173087450599,0.78952808720224976,-0.00632508509796214,0.00036150693475596,0.61368172706216051,0.04777777777777778,-0.02111111111111111,0.11000000000000000,-1.61000000000000010,1.38999999999999990,12.21000000000000085,90.00000000000000000,90.00000000000000000,11.67887865600000019
3.35016489028930664,-76.19766865745314988,1135.41494061128605608,30.39335527140565674,0.78904667575013687,-0.00595961446918135,0.00010331678176500,0.61430433484444802,0.04777777777777778,-0.02111111111111111,0.11000000000000000,-1.61000000000000010,1.38999999999999990,12.21000000000000085,90.00000000000000000,90.00000000000000000,11.67887865600000019
3.36003017425537109,-74.64164452659854021,1141.81651172345550549,30.18962440810373948,0.78837768472697933,-0.00664034228293495,0.00011376839922619,0.61515568690831757,0.04777777777777778,-0.02111111111111111,0.11000000000000000,-1.61000000000000010,1.38999999999999990,12.21000000000000085,90.00000000000000000,90.00000000000000000,11.67887865600000019
3.37008142471313477,-73.23941860949275906,1147.58569577660273353,30.20674201616666821,0.78804019930681812,-0.00684338624266636,-0.00013284690981263,0.61558573301604602,0.04777777777777778,-0.02111111111111111,0.11000000000000000,-1.61000000000000010,1.38999999999999990,12.21000000000000085,90.00000000000000000,90.00000000000000000,11.67887865600000019
3.38003873825073242,-71.45423185288542811,1153.81109118539188785,30.00574057464483246,0.78783255697363352,-0.00720714926356355,0.00017751791922263,0.61584729248350767,0.04777777777777778,-0.02111111111111111,0.11000000000000000,-1.61000000000000010,1.38999999999999990,12.21000000000000085,90.00000000000000000,90.00000000000000000,11.67887865600000019
3.39002799987792969,-70.19859156700918845,1159.70083981539914930,30.02191567121059279,0.78740526942167655,-0.00688406423592737,0.00020916812512835,0.61639719953554950,-0.05777777777777778,-0.02777777777777778,0.12444444444444444,3.22000000000000020,1.71999999999999997,7.92999999999999972,90.00000000000000000,90.00000000000000000,11.68875926399999976
3.40004253387451172,-68.85473126538484223,1166.13636005481316715,29.98189193335596414,0.78685332861544299,-0.00658309138501898,0.00057497619075361,0.61710466823464749,-0.05777777777777778,-0.02777777777777778,0.12444444444444444,3.22000000000000020,1.71999999999999997,7.92999999999999972,90.00000000000000000,90.00000000000000000,11.68875926399999976
3.41003179550170898,-67.07230100471086587,1172.52983076887858260,30.10692538517515970,0.78649634639641752,-0.00703577380182963,0.00007015788330281,0.61755484782322534,-0.05777777777777778,-0.02777777777777778,0.12444444444444444,3.22000000000000020,1.71999999999999997,7.92999999999999972,90.00000000000000000,90.00000000000000000,11.68875926399999976
