t,x,y,z,q0,q1,q2,q3,wx,wy,wz,ax,ay,az,dutyR,dutyL,Vbatt
0.00000000000000000,-24.34665685486107733,55.39081008235938697,32.06003073476680498,0.10438609749014452,-0.64908081232952131,0.60209034785033722,0.45308371714496731,0.00000000000000000,0.00000000000000000,0.00000000000000000,0.00000000000000000,0.00000000000000000,0.00000000000000000,0.00000000000000000,0.00000000000000000,0.00000000000000000
0.01009297370910645,-24.34665685486107733,55.39081008235938697,32.06003073476680498,0.67401289255357211,-0.00378522233560609,0.00224742225236700,0.73870646528689332,0.00000000000000000,0.00000000000000000,0.00000000000000000,0.00000000000000000,0.00000000000000000,0.00000000000000000,0.00000000000000000,0.00000000000000000,0.00000000000000000
0.02006268501281738,-24.26823712759415130,55.39743071365177229,32.06754672013082796,0.67410070931625998,-0.00385309482567220,0.00210374518211369,0.73862640192169404,0.00000000000000000,0.00000000000000000,0.00000000000000000,0.00000000000000000,0.00000000000000000,0.00000000000000000,0.00000000000000000,0.00000000000000000,0.00000000000000000
0.03007173538208008,-24.27531443956204882,55.39929032616866067,32.05641986858508830,0.67406162724505803,-0.00380621744576600,0.00211007579779753,0.73866229290835428,0.00000000000000000,0.00000000000000000,0.00000000000000000,0.00000000000000000,0.00000000000000000,0.00000000000000000,0.00000000000000000,0.00000000000000000,0.00000000000000000
0.04009175300598145,-24.31880029447888703,55.39047204786012202,32.07469581085776156,0.67405746465485195,-0.00374115863568364,0.00227097240293385,0.73866594666295604,0.00000000000000000,0.00000000000000000,0.00000000000000000,0.00000000000000000,0.00000000000000000,0.00000000000000000,0.00000000000000000,0.00000000000000000,0.00000000000000000
0.05019640922546387,-24.30697016556444012,55.42937004729393635,32.08804709782593534,0.67402933572518475,-0.00381700450457442,0.00215161378001385,0.73869158355610121,0.00000000000000000,0.00000000000000000,0.00000000000000000,0.00000000000000000,0.00000000000000000,0.00000000000000000,0.00000000000000000,0.00000000000000000,0.00000000000000000
0.06006884574890137,-24.33700503923290626,55.42858907045231120,32.08361379956659221,0.67406761789274805,-0.00369883257436300,0.00219023666604305,0.73865713833234559,0.00000000000000000,0.00000000000000000,0.00000000000000000,0.00000000000000000,0.00000000000000000,0.00000000000000000,0.00000000000000000,0.00000000000000000,0.00000000000000000
0.07005953788757324,-24.30764633281737019,55.40550938205146991,32.05280391595210432,0.67407849783575624,-0.00375252091622553,0.00213348822475633,0.73864710489533403,0.00000000000000000,0.00000000000000000,0.00000000000000000,0.00000000000000000,0.00000000000000000,0.00000000000000000,0.00000000000000000,0.00000000000000000,0.00000000000000000
0.08007097244262695,-24.28076952726784654,55.37956490027778500,32.04796012438720965,0.67409175270476140,-0.00383389200468487,0.00218164090682889,0.73863444994833083,0.00000000000000000,0.00000000000000000,0.00000000000000000,0.00000000000000000,0.00000000000000000,0.00000000000000000,0.00000000000000000,0.00000000000000000,0.00000000000000000
0.09003901481628418,-24.27859414954310679,55.39651283630664125,32.06053493473689997,0.67404639329729799,-0.00380401559202671,0.00212071621204097,0.73867617513429229,0.00000000000000000,0.00000000000000000,0.00000000000000000,0.00000000000000000,0.00000000000000000,0.00000000000000000,0.00000000000000000,0.00000000000000000,0.00000000000000000
0.10013914108276367,-24.30607261122826301,55.39497976448340211,32.06510135072392842,0.67407517473008449,-0.00379200864972526,0.00215218527454112,0.73864988159584111,0.00000000000000000,0.00000000000000000,0.00000000000000000,0.00000000000000000,0.00000000000000000,0.00000000000000000,0.00000000000000000,0.00000000000000000,0.00000000000000000
0.11003947257995605,-24.31852888504292309,55.40562429937886435,32.04814964409367661,0.67405387738220224,-0.00375204791803487,0.00221360794014056,0.73866933905660859,0.00000000000000000,0.00000000000000000,0.00000000000000000,0.00000000000000000,0.00000000000000000,0.00000000000000000,0.00000000000000000,0.00000000000000000,0.00000000000000000
0.12006068229675293,-24.32523388954561838,55.36307487144790684,32.03916389701547018,0.67404663975568646,-0.00381590754446984,0.00224263102461070,0.73867552882829968,0.00000000000000000,0.00000000000000000,0.00000000000000000,0.00000000000000000,0.00000000000000000,0.00000000000000000,0.00000000000000000,0.00000000000000000,0.00000000000000000
0.13006305694580078,-24.33004316891792840,55.37365844951948901,32.03742912768357343,0.67404672308318037,-0.00377257609164825,0.00222323883227828,0.73867573398586328,0.00000000000000000,0.00000000000000000,0.00000000000000000,0.00000000000000000,0.00000000000000000,0.00000000000000000,0.00000000000000000,0.00000000000000000,0.00000000000000000
0.14010572433471680,-24.26888372853893472,55.41112864351486422,32.05842120437817755,0.67405978628020180,-0.00383746525194249,0.00210821113138362,0.73866381651340884,0.00000000000000000,0.00000000000000000,0.00000000000000000,0.00000000000000000,0.00000000000000000,0.00000000000000000,0.00000000000000000,0.00000000000000000,0.00000000000000000
0.15019297599792480,-24.31523869769112522,55.40178392885922420,32.06796973657947802,0.67405161070587760,-0.00377796920012756,0.00221958161519413,0.73867125740141548,0.00000000000000000,0.00000000000000000,0.00000000000000000,0.00000000000000000,0.00000000000000000,0.00000000000000000,0.00000000000000000,0.00000000000000000,0.00000000000000000
0.16006112098693848,-24.30318313608244196,55.40681158370193771,32.08169803619535543,0.67408397035857104,-0.00374435443437295,0.00215542536711969,0.73864208846841484,0.00000000000000000,0.00000000000000000,0.00000000000000000,0.00000000000000000,0.00000000000000000,0.00000000000000000,0.00000000000000000,0.00000000000000000,0.00000000000000000
0.17008066177368164,-24.29999674134764476,55.38282069444748146,32.03979091960782455,0.67405499412206160,-0.00380388900060201,0.00221874820060536,0.73866803943584902,0.00000000000000000,0.00000000000000000,0.00000000000000000,0.00000000000000000,0.00000000000000000,0.00000000000000000,0.00000000000000000,0.00000000000000000,0.00000000000000000
0.18007373809814453,-24.31190298736398248,55.37759279341090490,32.04772085421928551,0.67404006904049985,-0.00377440165788200,0.00224198280578234,0.73868173981296004,0.00000000000000000,0.00000000000000000,0.00000000000000000,0.00000000000000000,0.00000000000000000,0.00000000000000000,0.00000000000000000,0.00000000000000000,0.00000000000000000
0.19008946418762207,-24.31723413508035136,55.37986746051101505,32.02463426088645093,0.67399391300385669,-0.00380361411437652,0.00221848214413937,0.73872377523022392,0.00000000000000000,0.00000000000000000,0.00000000000000000,0.00000000000000000,0.00000000000000000,0.00000000000000000,0.00000000000000000,0.00000000000000000,0.00000000000000000
0.20008444786071777,-24.34042813556354190,55.41164631478904568,32.07428823710667132,0.67408809966501793,-0.00372104179056063,0.00225691550744337,0.73863813472524564,0.00000000000000000,0.00000000000000000,0.00000000000000000,0.00000000000000000,0.00000000000000000,0.00000000000000000,0.00000000000000000,0.00000000000000000,0.00000000000000000
0.21003985404968262,-24.30196851246349254,55.41870814797358236,32.04569407374581402,0.67408999763840349,-0.00376297409646022,0.00221633161177545,0.73863631306888289,0.00000000000000000,0.00000000000000000,0.00000000000000000,0.00000000000000000,0.00000000000000000,0.00000000000000000,0.00000000000000000,0.00000000000000000,0.00000000000000000
0.22014594078063965,-24.28715222764339998,55.37627426728539604,32.04854323244895653,0.67404241871944226,-0.00384405638841951,0.00217538061812675,0.73867943569351702,0.00000000000000000,0.00000000000000000,0.00000000000000000,0.00000000000000000,0.00000000000000000,0.00000000000000000,0.00000000000000000,0.00000000000000000,0.00000000000000000
0.23003673553466797,-24.31268380236543791,55.37517690318020414,32.05668195180921742,0.67406065030605533,-0.00379336951834688,0.00226570795939129,0.73866278952179387,0.00000000000000000,0.00000000000000000,0.00000000000000000,0.00000000000000000,0.00000000000000000,0.00000000000000000,0.00000000000000000,0.00000000000000000,0.00000000000000000
0.24005579948425293,-24.32246961242722705,55.40007590183585506,32.02679803017337434,0.67411496730210529,-0.00367784071086511,0.00231698636459175,0.73861364455388512,0.00000000000000000,0.00000000000000000,0.00000000000000000,0.00000000000000000,0.00000000000000000,0.00000000000000000,0.00000000000000000,0.00000000000000000,0.00000000000000000
0.25018334388732910,-24.33418682921542242,55.41511205109562610,32.05512165784772094,0.67409338725361545,-0.00371888609410585,0.00226907552066833,0.73863328278885954,0.00000000000000000,0.00000000000000000,0.00000000000000000,0.00000000000000000,0.00000000000000000,0.00000000000000000,0.00000000000000000,0.00000000000000000,0.00000000000000000
0.26003932952880859,-24.33343921370407159,55.42276427278105899,32.04692901433000429,0.67407986868425485,-0.00365678046028967,0.00225411862626212,0.73864597578305491,0.00000000000000000,0.00000000000000000,0.00000000000000000,0.00000000000000000,0.00000000000000000,0.00000000000000000,0.00000000000000000,0.00000000000000000,0.00000000000000000
0.27007365226745605,-24.32594621447142913,55.38194312588691304,32.03708249171847910,0.67412071817826702,-0.00375377161375060,0.00218468006703643,0.73860841702115354,0.00000000000000000,0.00000000000000000,0.00000000000000000,0.00000000000000000,0.00000000000000000,0.00000000000000000,0.00000000000000000,0.00000000000000000,0.00000000000000000
0.28005909919738770,-24.33687119776929464,55.37717968348956532,32.04656844423735151,0.67408165652938923,-0.00374849140670302,0.00222016489515758,0.73864398732447945,0.00000000000000000,0.00000000000000000,0.00000000000000000,0.00000000000000000,0.00000000000000000,0.00000000000000000,0.00000000000000000,0.00000000000000000,0.00000000000000000
0.29005861282348633,-24.32193955723094447,55.43033605894129323,32.05847179998111329,0.67409536130148384,-0.00371410851785563,0.00216474552947854,0.73863181839569569,0.00000000000000000,0.00000000000000000,0.00000000000000000,0.00000000000000000,0.00000000000000000,0.00000000000000000,0.00000000000000000,0.00000000000000000,0.00000000000000000
0.30008649826049805,-24.32492407616340913,55.40682812492914877,32.03777018477937588,0.67408712645048008,-0.00374955693023575,0.00221067775680353,0.73863901852015446,0.00000000000000000,0.00000000000000000,0.00000000000000000,0.00000000000000000,0.00000000000000000,0.00000000000000000,0.00000000000000000,0.00000000000000000,0.00000000000000000
0.31004238128662109,-24.32342822041104569,55.37840498519935295,32.03086709553734579,0.67403259073975641,-0.00377414102230797,0.00233518512037754,0.73868827619683364,0.00000000000000000,0.00000000000000000,0.00000000000000000,0.00000000000000000,0.00000000000000000,0.00000000000000000,0.00000000000000000,0.00000000000000000,0.00000000000000000
0.32005977630615234,-24.30649346598427130,55.39701440371968033,32.02870522552505861,0.67407583603774668,-0.00378478514735797,0.00219904388021965,0.73864917713175149,0.00000000000000000,0.00000000000000000,0.00000000000000000,0.00000000000000000,0.00000000000000000,0.00000000000000000,0.00000000000000000,0.00000000000000000,0.00000000000000000
0.33006477355957031,-24.29484686315615249,55.39954350085212553,32.03948287531552097,0.67412983117598380,-0.00377121264721104,0.00214262580875733,0.73860013392122570,0.00000000000000000,0.00000000000000000,0.00000000000000000,0.00000000000000000,0.00000000000000000,0.00000000000000000,0.00000000000000000,0.00000000000000000,0.00000000000000000
0.34008479118347168,-24.27570885758207808,55.40089314684971811,32.04668782488904810,0.67401353236446737,-0.00383606685622008,0.00211013538604646,0.73870602414580333,0.00000000000000000,0.00000000000000000,0.00000000000000000,0.00000000000000000,0.00000000000000000,0.00000000000000000,0.00000000000000000,0.00000000000000000,0.00000000000000000
0.35019016265869141,-24.30124918576647630,55.39059831020940550,32.07425554317857319,0.67410237692262387,-0.00380488451741132,0.00221191573469716,0.73862481390071189,0.00000000000000000,0.00000000000000000,0.00000000000000000,0.00000000000000000,0.00000000000000000,0.00000000000000000,0.00000000000000000,0.00000000000000000,0.00000000000000000
0.36004018783569336,-24.29588016650080817,55.39880042090634760,32.06467245097098129,0.67408611984999478,-0.00371815400643650,0.00222895809684946,0.73864004095510949,0.00000000000000000,0.00000000000000000,0.00000000000000000,0.00000000000000000,0.00000000000000000,0.00000000000000000,0.00000000000000000,0.00000000000000000,0.00000000000000000
0.37006115913391113,-24.28082678412461348,55.38845451193230929,32.03824761611293326,0.67406659549163350,-0.00380953072731662,0.00213631618400247,0.73865766662989285,0.00000000000000000,0.00000000000000000,0.00000000000000000,0.00000000000000000,0.00000000000000000,0.00000000000000000,0.00000000000000000,0.00000000000000000,0.00000000000000000
0.38006043434143066,-24.26064415966445154,55.37995560036093678,32.04339401214275540,0.67409278283948937,-0.00386711340846719,0.00217768565083066,0.73863334831484917,0.00000000000000000,0.00000000000000000,0.00000000000000000,0.00000000000000000,0.00000000000000000,0.00000000000000000,0.00000000000000000,0.00000000000000000,0.00000000000000000
0.39007544517517090,-24.32440582494069758,55.37785470882124628,32.03525425591770670,0.67400812960956380,-0.00378610815196316,0.00222876477665715,0.73871086306676781,0.00000000000000000,0.00000000000000000,0.00000000000000000,0.00000000000000000,0.00000000000000000,0.00000000000000000,0.00000000000000000,0.00000000000000000,0.00000000000000000
0.40014290809631348,-24.30422405955404486,55.39967086276428887,32.05824808711387419,0.67410480788734917,-0.00379690507309127,0.00216219932148465,0.73862278355674915,0.00000000000000000,0.00000000000000000,0.00000000000000000,0.00000000000000000,0.00000000000000000,0.00000000000000000,0.00000000000000000,0.00000000000000000,0.00000000000000000
0.41007208824157715,-24.31734504156800725,55.40205025987476262,32.03367664578892260,0.67406361536010639,-0.00371582268349065,0.00224084549158372,0.73866055378700834,0.00000000000000000,0.00000000000000000,0.00000000000000000,0.00000000000000000,0.00000000000000000,0.00000000000000000,0.00000000000000000,0.00000000000000000,0.00000000000000000
0.42006540298461914,-24.33644194851055431,55.36537198918298230,32.03344389281178906,0.67404459381952520,-0.00377641847095036,0.00230420724887181,0.73867740918154356,0.00000000000000000,0.00000000000000000,0.00000000000000000,0.00000000000000000,0.00000000000000000,0.00000000000000000,0.00000000000000000,0.00000000000000000,0.00000000000000000
0.43007731437683105,-24.26604707865173438,55.39070730188316105,32.04773948811606488,0.67410960690268851,-0.00379825878813621,0.00216050456328443,0.73861840170125248,0.00000000000000000,0.00000000000000000,0.00000000000000000,0.00000000000000000,0.00000000000000000,0.00000000000000000,0.00000000000000000,0.00000000000000000,0.00000000000000000
0.44006752967834473,-24.31288194612731601,55.39792268161628641,32.05440148814090406,0.67416871563341729,-0.00369710534331342,0.00225641301729607,0.73856467751549293,0.00000000000000000,0.00000000000000000,0.00000000000000000,0.00000000000000000,0.00000000000000000,0.00000000000000000,0.00000000000000000,0.00000000000000000,0.00000000000000000
0.45007348060607910,-24.30730975024776797,55.35555119661668044,32.03412357012161493,0.67408550160377112,-0.00382287822787086,0.00231946691870281,0.73863979191677742,0.00000000000000000,0.00000000000000000,0.00000000000000000,0.00000000000000000,0.00000000000000000,0.00000000000000000,0.00000000000000000,0.00000000000000000,0.00000000000000000
0.46006655693054199,-24.32689168993706730,55.40639041143015220,32.02413709443741396,0.67406936854523780,-0.00370708472054447,0.00226524185165480,0.73865527317636626,0.00000000000000000,0.00000000000000000,0.00000000000000000,0.00000000000000000,0.00000000000000000,0.00000000000000000,0.00000000000000000,0.00000000000000000,0.00000000000000000
0.47007560729980469,-24.28236187183215478,55.37533229379804567,32.03483924781379955,0.67408064108577359,-0.00383016536869437,0.00223868261587833,0.73864443912263100,0.00000000000000000,0.00000000000000000,0.00000000000000000,0.00000000000000000,0.00000000000000000,0.00000000000000000,0.00000000000000000,0.00000000000000000,0.00000000000000000
0.48006367683410645,-24.28394585736139177,55.37368700288271128,32.03973170523433112,0.67405752419033160,-0.00384379187318845,0.00216853750119525,0.73866567321863652,0.00000000000000000,0.00000000000000000,0.00000000000000000,0.00000000000000000,0.00000000000000000,0.00000000000000000,0.00000000000000000,0.00000000000000000,0.00000000000000000
0.49007844924926758,-24.29611894674751582,55.41494841006965544,32.06748931614413323,0.67396663051316430,-0.00385157073922916,0.00202007549346502,0.73874898690460045,0.00000000000000000,0.00000000000000000,0.00000000000000000,0.00000000000000000,0.00000000000000000,0.00000000000000000,0.00000000000000000,0.00000000000000000,0.00000000000000000
0.50013232231140137,-24.31640805939225558,55.38744345762760446,32.06477075422187539,0.67409876643185329,-0.00374176650886284,0.00223455414499445,0.73862836328306536,0.00000000000000000,0.00000000000000000,0.00000000000000000,0.00000000000000000,0.00000000000000000,0.00000000000000000,0.00000000000000000,0.00000000000000000,0.00000000000000000
0.51004767417907715,-24.28160591004701629,55.44052802689705572,32.06383851655140660,0.67410046016697578,-0.00372447626471737,0.00215473326402025,0.73862714207087365,0.00000000000000000,0.00000000000000000,0.00000000000000000,0.00000000000000000,0.00000000000000000,0.00000000000000000,0.00000000000000000,0.00000000000000000,0.00000000000000000
0.52006292343139648,-24.26014352442898669,55.38875672884876167,32.02395084376514944,0.67403068816141565,-0.00383379294354921,0.00216910179130530,0.73869021141865243,0.00000000000000000,0.00000000000000000,0.00000000000000000,0.00000000000000000,0.00000000000000000,0.00000000000000000,0.00000000000000000,0.00000000000000000,0.00000000000000000
0.53006076812744141,-24.27838615431589275,55.37273275778473902,32.06562932976822111,0.67405178571264379,-0.00384752419578380,0.00213002514382342,0.73867100236035110,0.00000000000000000,0.00000000000000000,0.00000000000000000,0.00000000000000000,0.00000000000000000,0.00000000000000000,0.00000000000000000,0.00000000000000000,0.00000000000000000
0.54007840156555176,-24.26914265474193755,55.41207036562457233,32.04596684258786610,0.67407865133654365,-0.00379113264657150,0.00214454423753595,0.73864673562913397,0.00000000000000000,0.00000000000000000,0.00000000000000000,0.00000000000000000,0.00000000000000000,0.00000000000000000,0.00000000000000000,0.00000000000000000,0.00000000000000000
0.55018687248229980,-24.34674991321816151,55.41229573408103448,32.04535003487469424,0.67404899894493064,-0.00379923885584462,0.00220390969634484,0.73867357850914350,0.00000000000000000,0.00000000000000000,0.00000000000000000,0.00000000000000000,0.00000000000000000,0.00000000000000000,0.00000000000000000,0.00000000000000000,0.00000000000000000
0.56006574630737305,-24.29292827030862512,55.42469378477058939,32.03674635261612025,0.67408503552613841,-0.00379862443851676,0.00218082111526719,0.73864076475060769,0.00000000000000000,0.00000000000000000,0.00000000000000000,0.00000000000000000,0.00000000000000000,0.00000000000000000,0.00000000000000000,0.00000000000000000,0.00000000000000000
0.57007503509521484,-24.29521353064295752,55.39478427495618718,32.04531482489706207,0.67403755776519969,-0.00380889847003266,0.00214242688272621,0.73868414970230789,0.00000000000000000,0.00000000000000000,0.00000000000000000,0.00000000000000000,0.00000000000000000,0.00000000000000000,0.00000000000000000,0.00000000000000000,0.00000000000000000
0.58006381988525391,-24.30423928001894751,55.37991564884031703,32.06911557168778160,0.67408621126743118,-0.00381392065600667,0.00207615462504395,0.73863991455263411,0.00000000000000000,0.00000000000000000,0.00000000000000000,0.00000000000000000,0.00000000000000000,0.00000000000000000,0.00000000000000000,0.00000000000000000,0.00000000000000000
0.59007453918457031,-24.26397933299582732,55.39938029661129804,32.03997288150234368,0.67405380185889319,-0.00385789332629082,0.00218099927225706,0.73866895975181524,0.00000000000000000,0.00000000000000000,0.00000000000000000,0.00000000000000000,0.00000000000000000,0.00000000000000000,0.00000000000000000,0.00000000000000000,0.00000000000000000
0.60014915466308594,-24.31258884217059801,55.41874268074943899,32.06669263975528139,0.67411207869680423,-0.00380315712176847,0.00215037408692380,0.73861615013636606,0.00000000000000000,0.00000000000000000,0.00000000000000000,0.00000000000000000,0.00000000000000000,0.00000000000000000,0.00000000000000000,0.00000000000000000,0.00000000000000000
0.61003923416137695,-24.32026065843166052,55.40368144689467300,32.07556731058027566,0.67401792576142017,-0.00379293237371074,0.00217046751977817,0.73870206341056521,0.00000000000000000,0.00000000000000000,0.00000000000000000,0.00000000000000000,0.00000000000000000,0.00000000000000000,0.00000000000000000,0.00000000000000000,0.00000000000000000
0.62005925178527832,-24.29899980898030165,55.39211657852346349,32.04395405686813803,0.67402257711448277,-0.00376850523688308,0.00218544901543439,0.73869790017356307,0.00000000000000000,0.00000000000000000,0.00000000000000000,0.00000000000000000,0.00000000000000000,0.00000000000000000,0.00000000000000000,0.00000000000000000,0.00000000000000000
0.63006138801574707,-24.27731961936724758,55.40150880406928735,32.04102963111376567,0.67409281943234400,-0.00385460967059454,0.00212459614307060,0.73863353489079342,0.00000000000000000,0.00000000000000000,0.00000000000000000,0.00000000000000000,0.00000000000000000,0.00000000000000000,0.00000000000000000,0.00000000000000000,0.00000000000000000
0.64003968238830566,-24.27021288573969926,55.41645724546302887,32.05405318075806065,0.67403057943431544,-0.00384445915940678,0.00207936535447221,0.73869051324687796,0.00000000000000000,0.00000000000000000,0.00000000000000000,0.00000000000000000,0.00000000000000000,0.00000000000000000,0.00000000000000000,0.00000000000000000,0.00000000000000000
0.65013790130615234,-24.32096988244998670,55.40097908361722290,32.04543861563693952,0.67409131915920706,-0.00379402633868423,0.00220265389866117,0.73863498909416958,0.00000000000000000,0.00000000000000000,0.00000000000000000,0.00000000000000000,0.00000000000000000,0.00000000000000000,0.00000000000000000,0.00000000000000000,0.00000000000000000
0.66004014015197754,-24.29660005707772541,55.37606263272801499,32.04261326386366449,0.67407782267457117,-0.00375703994871802,0.00225229219668569,0.73864734536109589,0.00000000000000000,0.00000000000000000,0.00000000000000000,0.00000000000000000,0.00000000000000000,0.00000000000000000,0.00000000000000000,0.00000000000000000,0.00000000000000000
0.67006254196166992,-24.29296485014964446,55.37882867102755569,32.04197919779652892,0.67409976777073399,-0.00382707567926831,0.00218809824835818,0.73862715141622259,0.00000000000000000,0.00000000000000000,0.00000000000000000,0.00000000000000000,0.00000000000000000,0.00000000000000000,0.00000000000000000,0.00000000000000000,0.00000000000000000
0.68006110191345215,-24.25601653244839895,55.37502319160289943,32.04934348548658107,0.67408064115923672,-0.00385576356048441,0.00216669064239395,0.73864452056004415,0.00000000000000000,0.00000000000000000,0.00000000000000000,0.00000000000000000,0.00000000000000000,0.00000000000000000,0.00000000000000000,0.00000000000000000,0.00000000000000000
0.69008088111877441,-24.29775369596547918,55.41132635417451269,32.07211065312080223,0.67404133000841826,-0.00377392401481963,0.00212858240957220,0.73868092710922117,0.00000000000000000,0.00000000000000000,0.00000000000000000,0.00000000000000000,0.00000000000000000,0.00000000000000000,0.00000000000000000,0.00000000000000000,0.00000000000000000
0.70004034042358398,-24.30603698301855431,55.38835061768882184,32.06742447485458314,0.67407519037990582,-0.00378217303025242,0.00223235352168442,0.73864967980715812,0.00000000000000000,0.00000000000000000,0.00000000000000000,0.00000000000000000,0.00000000000000000,0.00000000000000000,0.00000000000000000,0.00000000000000000,0.00000000000000000
0.71008014678955078,-24.29404491046616954,55.42644005538917185,32.05245609148214214,0.67410834075434312,-0.00376096829016511,0.00215292369034117,0.73861977022181713,0.00000000000000000,0.00000000000000000,0.00000000000000000,0.00000000000000000,0.00000000000000000,0.00000000000000000,0.00000000000000000,0.00000000000000000,0.00000000000000000
0.72007131576538086,-24.26801935491116069,55.38055510962038852,32.05837933346334978,0.67410980694018874,-0.00383293784261243,0.00217771446254793,0.73861798944669321,0.00000000000000000,0.00000000000000000,0.00000000000000000,0.00000000000000000,0.00000000000000000,0.00000000000000000,0.00000000000000000,0.00000000000000000,0.00000000000000000
0.73007965087890625,-24.26567135935604469,55.39062285038891531,32.04468586949703734,0.67403553461307031,-0.00386773561085643,0.00219097397024967,0.73868554766773320,0.00000000000000000,0.00000000000000000,0.00000000000000000,0.00000000000000000,0.00000000000000000,0.00000000000000000,0.00000000000000000,0.00000000000000000,0.00000000000000000
0.74006438255310059,-24.21326044896622420,55.39718853094168338,32.04966829951550267,0.67404847770529075,-0.00389908629834076,0.00211286887989069,0.73867379986995219,0.00000000000000000,0.00000000000000000,0.00000000000000000,0.00000000000000000,0.00000000000000000,0.00000000000000000,0.00000000000000000,0.00000000000000000,0.00000000000000000
0.75020647048950195,-24.31657898488078828,55.43632790485339257,32.04665170020936671,0.67413508059562788,-0.00372159318378830,0.00215503514777730,0.73859555825770573,0.00000000000000000,0.00000000000000000,0.00000000000000000,0.00000000000000000,0.00000000000000000,0.00000000000000000,0.00000000000000000,0.00000000000000000,0.00000000000000000
0.76006650924682617,-24.26554068220304927,55.40512333168066306,32.01605447206852517,0.67409383266920231,-0.00381289752830235,0.00217839807299736,0.73863266997311949,0.00000000000000000,0.00000000000000000,0.00000000000000000,0.00000000000000000,0.00000000000000000,0.00000000000000000,0.00000000000000000,0.00000000000000000,0.00000000000000000
0.77007818222045898,-24.28645266261742108,55.38637916668503891,32.05242501105374231,0.67406379372922898,-0.00378519461014606,0.00213804954883102,0.73866034347949805,0.00000000000000000,0.00000000000000000,0.00000000000000000,0.00000000000000000,0.00000000000000000,0.00000000000000000,0.00000000000000000,0.00000000000000000,0.00000000000000000
0.78007125854492188,-24.29983783599257308,55.41575776604850745,32.02467501496972346,0.67408880459678855,-0.00376610312194825,0.00222574009304860,0.73863735761575544,0.00000000000000000,0.00000000000000000,0.00000000000000000,0.00000000000000000,0.00000000000000000,0.00000000000000000,0.00000000000000000,0.00000000000000000,0.00000000000000000
0.79004430770874023,-24.28729635006880017,55.39082716599410361,32.04272992433464395,0.67403977937785142,-0.00385977273087652,0.00212961625711939,0.73868189547688279,0.00000000000000000,0.00000000000000000,0.00000000000000000,0.00000000000000000,0.00000000000000000,0.00000000000000000,0.00000000000000000,0.00000000000000000,0.00000000000000000
0.80004000663757324,-24.30396723940285142,55.40825508849351166,32.06076030116566500,0.67405034107052464,-0.00378209790100077,0.00213589492623806,0.73867264156122681,0.00000000000000000,0.00000000000000000,0.00000000000000000,0.00000000000000000,0.00000000000000000,0.00000000000000000,0.00000000000000000,0.00000000000000000,0.00000000000000000
0.81006503105163574,-24.30587656833774801,55.41457345020489811,32.05765804823325738,0.67406895980926640,-0.00375545864343887,0.00219066520986538,0.73865562675577612,0.00000000000000000,0.00000000000000000,0.00000000000000000,0.00000000000000000,0.00000000000000000,0.00000000000000000,0.00000000000000000,0.00000000000000000,0.00000000000000000
0.82005929946899414,-24.28624354751944381,55.38077095276313599,32.05092572160020836,0.67404614168592469,-0.00382964255617568,0.00217725253975149,0.73867610783589588,0.00000000000000000,0.00000000000000000,0.00000000000000000,0.00000000000000000,0.00000000000000000,0.00000000000000000,0.00000000000000000,0.00000000000000000,0.00000000000000000
0.83006906509399414,-24.31423790698856990,55.36804448468011941,32.05726261253671083,0.67403910063833139,-0.00384842775915861,0.00219394995143586,0.73868238573697043,0.00000000000000000,0.00000000000000000,0.00000000000000000,0.00000000000000000,0.00000000000000000,0.00000000000000000,0.00000000000000000,0.00000000000000000,0.00000000000000000
0.84006643295288086,-24.30359327308224238,55.39753685006083828,32.04361291385750832,0.67407878199782423,-0.00381501941235581,0.00223370306006751,0.73864622916376732,0.00000000000000000,0.00000000000000000,0.00000000000000000,0.00000000000000000,0.00000000000000000,0.00000000000000000,0.00000000000000000,0.00000000000000000,0.00000000000000000
0.85019922256469727,-24.31249027763524850,55.43650715870727907,32.06479743505205704,0.67406635174006813,-0.00372272512533609,0.00215717960553870,0.73865827101957304,0.00000000000000000,0.00000000000000000,0.00000000000000000,0.00000000000000000,0.00000000000000000,0.00000000000000000,0.00000000000000000,0.00000000000000000,0.00000000000000000
0.86010289192199707,-24.30611126277733192,55.40234567929820741,32.06493776445819321,0.67402663604857060,-0.00376433775292248,0.00220594141695508,0.73869415692882978,0.00000000000000000,0.00000000000000000,0.00000000000000000,0.00000000000000000,0.00000000000000000,0.00000000000000000,0.00000000000000000,0.00000000000000000,0.00000000000000000
0.87008142471313477,-24.31592109415053926,55.38652619462999382,32.02272013552757812,0.67405157808844529,-0.00382693228630408,0.00219390826130149,0.73867111181654699,0.00000000000000000,0.00000000000000000,0.00000000000000000,0.00000000000000000,0.00000000000000000,0.00000000000000000,0.00000000000000000,0.00000000000000000,0.00000000000000000
0.88007330894470215,-24.27165721126685227,55.38972929277085200,32.04015634277748603,0.67406592380544306,-0.00387153015823487,0.00215308249591930,0.73865790854380875,0.00000000000000000,0.00000000000000000,0.00000000000000000,0.00000000000000000,0.00000000000000000,0.00000000000000000,0.00000000000000000,0.00000000000000000,0.00000000000000000
0.89004230499267578,-24.30890433005279760,55.38404505170740322,32.04549874985628577,0.67412509983972035,-0.00377143454716707,0.00220691703069491,0.73860426181058758,0.00000000000000000,0.00000000000000000,0.00000000000000000,0.00000000000000000,0.00000000000000000,0.00000000000000000,0.00000000000000000,0.00000000000000000,0.00000000000000000
0.90011763572692871,-24.35392916825176712,55.39406299948755219,32.06437967507290665,0.67404815574096755,-0.00374242072156510,0.00229212222988695,0.73867436953303478,0.00000000000000000,0.00000000000000000,0.00000000000000000,0.00000000000000000,0.00000000000000000,0.00000000000000000,0.00000000000000000,0.00000000000000000,0.00000000000000000
0.91021633148193359,-24.26968585575035675,55.40394665446120115,32.04377754727961047,0.67408901178902048,-0.00381413342724655,0.00217997010049470,0.73863705857603801,0.00000000000000000,0.00000000000000000,0.00000000000000000,0.00000000000000000,0.00000000000000000,0.00000000000000000,0.00000000000000000,0.00000000000000000,0.00000000000000000
0.92023015022277832,-24.30673375324083807,55.40865889640136288,32.06453913357695740,0.67404791166397815,-0.00379088117519094,0.00212613492032582,0.73867484155861574,0.00000000000000000,0.00000000000000000,0.00000000000000000,0.00000000000000000,0.00000000000000000,0.00000000000000000,0.00000000000000000,0.00000000000000000,0.00000000000000000
0.93024301528930664,-24.28938574980150022,55.36975758857933982,32.07730689670697899,0.67410465858516577,-0.00383089475154944,0.00217627911754854,0.73862270296030208,0.00000000000000000,0.00000000000000000,0.00000000000000000,0.00000000000000000,0.00000000000000000,0.00000000000000000,0.00000000000000000,0.00000000000000000,0.00000000000000000
0.94011473655700684,-24.27334362203912477,55.39620078937144854,32.07582605522877373,0.67403374190491483,-0.00382726930803102,0.00206766549142589,0.73868774969043449,0.00000000000000000,0.00000000000000000,0.00000000000000000,0.00000000000000000,0.00000000000000000,0.00000000000000000,0.00000000000000000,0.00000000000000000,0.00000000000000000
0.95025610923767090,-24.30912247221860412,55.43349641015786489,32.09229142787663136,0.67410454038184220,-0.00373710409584010,0.00213305555907712,0.73862341742158766,0.00000000000000000,0.00000000000000000,0.00000000000000000,0.00000000000000000,0.00000000000000000,0.00000000000000000,0.00000000000000000,0.00000000000000000,0.00000000000000000
0.96018576622009277,-24.34467509858435008,55.39843953650125741,32.05111864446133296,0.67405546542470263,-0.00371222233026289,0.00225205717048444,0.73866797492172309,0.00000000000000000,0.00000000000000000,0.00000000000000000,0.00000000000000000,0.00000000000000000,0.00000000000000000,0.00000000000000000,0.00000000000000000,0.00000000000000000
0.97010135650634766,-24.31048622258976977,55.39803232674986333,32.05201540579956543,0.67410129290959153,-0.00376047730750243,0.00213014078121155,0.73862627099791733,0.00000000000000000,0.00000000000000000,0.00000000000000000,0.00000000000000000,0.00000000000000000,0.00000000000000000,0.00000000000000000,0.00000000000000000,0.00000000000000000
0.98007774353027344,-24.29374308629784807,55.38776971692615803,32.05972186268271429,0.67405978894967034,-0.00382675947747125,0.00216693747097414,0.73866369967328471,0.00000000000000000,0.00000000000000000,0.00000000000000000,0.00000000000000000,0.00000000000000000,0.00000000000000000,0.00000000000000000,0.00000000000000000,0.00000000000000000
0.99007582664489746,-24.32683280603016485,55.39491477191003810,32.07516712231578282,0.67408343584050556,-0.00374742407158725,0.00224724427631905,0.73864228705879587,0.00000000000000000,0.00000000000000000,0.00000000000000000,0.00000000000000000,0.00000000000000000,0.00000000000000000,0.00000000000000000,0.00000000000000000,0.00000000000000000
1.00018572807312012,-24.31704145890591562,55.37915988755255370,32.06602189676572578,0.67404022979185252,-0.00382461017665217,0.00222213789992081,0.73868139483968143,0.00000000000000000,0.00000000000000000,0.00000000000000000,0.00000000000000000,0.00000000000000000,0.00000000000000000,0.00000000000000000,0.00000000000000000,0.00000000000000000
1.01012158393859863,-24.31533079840744804,55.38047154638854863,32.05776631138218136,0.67405474363700002,-0.00379083576524107,0.00225101398067899,0.73866823749279908,0.00000000000000000,0.00000000000000000,0.00000000000000000,0.00000000000000000,0.00000000000000000,0.00000000000000000,0.00000000000000000,0.00000000000000000,0.00000000000000000
1.02018404006958008,-24.29428332169107208,55.36947525001320258,32.03715423877066115,0.67403499936468547,-0.00386944219295457,0.00223215271984248,0.73868590384736543,0.00000000000000000,0.00000000000000000,0.00000000000000000,0.00000000000000000,0.00000000000000000,0.00000000000000000,0.00000000000000000,0.00000000000000000,0.00000000000000000
1.03009963035583496,-24.26803840888276298,55.39462447299757741,32.04997285522119199,0.67408968112887835,-0.00382851809412794,0.00214594625764638,0.73863647294147994,0.00000000000000000,0.00000000000000000,0.00000000000000000,0.00000000000000000,0.00000000000000000,0.00000000000000000,0.00000000000000000,0.00000000000000000,0.00000000000000000
1.04013991355895996,-24.25678352566780305,55.38103421801061899,32.05189854466451038,0.67405876391910657,-0.00382704160845288,0.00220004571950406,0.73866453572322377,0.00000000000000000,0.00000000000000000,0.00000000000000000,0.00000000000000000,0.00000000000000000,0.00000000000000000,0.00000000000000000,0.00000000000000000,0.00000000000000000
1.05021357536315918,-24.33055306533869455,55.39340483565248263,32.04045993833603490,0.67410876048253687,-0.00372029174454033,0.00234899620339798,0.73861899561740862,0.00000000000000000,0.00000000000000000,0.00000000000000000,0.00000000000000000,0.00000000000000000,0.00000000000000000,0.00000000000000000,0.00000000000000000,0.00000000000000000
1.06019377708435059,-24.31401842762207366,55.38814377821597645,32.02968363999047341,0.67407571954594503,-0.00378056725435191,0.00229071310612167,0.73864902644173136,0.00000000000000000,0.00000000000000000,0.00000000000000000,0.00000000000000000,0.00000000000000000,0.00000000000000000,0.00000000000000000,0.00000000000000000,0.00000000000000000
1.07024097442626953,-24.31133466925142272,55.34978150243466644,32.03263850729710072,0.67406252137178857,-0.00379906939078145,0.00230226280061816,0.73866093976848990,0.00000000000000000,0.00000000000000000,0.00000000000000000,0.00000000000000000,0.00000000000000000,0.00000000000000000,0.00000000000000000,0.00000000000000000,0.00000000000000000
1.08018398284912109,-24.28788359911590078,55.38189417045518326,32.04497181372112635,0.67403533006703331,-0.00381656595646676,0.00220807704713861,0.73868594953571376,0.00000000000000000,0.00000000000000000,0.00000000000000000,0.00000000000000000,0.00000000000000000,0.00000000000000000,0.00000000000000000,0.00000000000000000,0.00000000000000000
1.09016251564025879,-24.31649963384888125,55.40074096660222125,32.02462322257846239,0.67409150656526773,-0.00376661316820240,0.00224334697544183,0.73863483589400025,0.00000000000000000,0.00000000000000000,0.00000000000000000,0.00000000000000000,0.00000000000000000,0.00000000000000000,0.00000000000000000,0.00000000000000000,0.00000000000000000
1.10013055801391602,-24.32348829374607746,55.38626616500476985,32.05686836838785325,0.67410488952756042,-0.00376635178354285,0.00216192896940379,0.73862286626695295,0.00000000000000000,0.00000000000000000,0.00000000000000000,0.00000000000000000,0.00000000000000000,0.00000000000000000,0.00000000000000000,0.00000000000000000,0.00000000000000000
1.11020851135253906,-24.27304851256925033,55.39745531399513112,32.05154154045553838,0.67407477137465666,-0.00381557000983815,0.00213843092330384,0.73865016830356867,0.00000000000000000,0.00000000000000000,0.00000000000000000,0.00000000000000000,0.00000000000000000,0.00000000000000000,0.00000000000000000,0.00000000000000000,0.00000000000000000
1.12010002136230469,-24.25335334889414085,55.39350905184662821,32.06823888838342640,0.67407661498375604,-0.00385366861856973,0.00211147353880935,0.73864836563124814,0.00000000000000000,0.00000000000000000,0.00000000000000000,0.00000000000000000,0.00000000000000000,0.00000000000000000,0.00000000000000000,0.00000000000000000,0.00000000000000000
1.13009691238403320,-24.28613581585754488,55.38103903757613011,32.08083267219725343,0.67405945863154859,-0.00383646458685312,0.00215226665646075,0.73866399365141433,0.00000000000000000,0.00000000000000000,0.00000000000000000,0.00000000000000000,0.00000000000000000,0.00000000000000000,0.00000000000000000,0.00000000000000000,0.00000000000000000
1.14009809494018555,-24.29492973447804616,55.39234142439030251,32.07199437485068216,0.67398152237417674,-0.00386453346895735,0.00209977548173693,0.73873511072791176,0.00000000000000000,0.00000000000000000,0.00000000000000000,0.00000000000000000,0.00000000000000000,0.00000000000000000,0.00000000000000000,0.00000000000000000,0.00000000000000000
1.15018177032470703,-24.32582214280854416,55.39942090714092870,32.07569275477283810,0.67403138615357538,-0.00384321253769599,0.00212855499809945,0.73868964352487054,0.00000000000000000,0.00000000000000000,0.00000000000000000,0.00000000000000000,0.00000000000000000,0.00000000000000000,0.00000000000000000,0.00000000000000000,0.00000000000000000
1.16007423400878906,-24.32373190279774278,55.41286777435195887,32.05352946805795256,0.67402498772578845,-0.00379356515269497,0.00214426557150674,0.73869569303593563,0.00000000000000000,0.00000000000000000,0.00000000000000000,0.00000000000000000,0.00000000000000000,0.00000000000000000,0.00000000000000000,0.00000000000000000,0.00000000000000000
1.17007398605346680,-24.33643549278973595,55.40744831863664643,32.05358380274149255,0.67406320357376037,-0.00375901721314559,0.00215704848586626,0.73866096046785912,0.00000000000000000,0.00000000000000000,0.00000000000000000,0.00000000000000000,0.00000000000000000,0.00000000000000000,0.00000000000000000,0.00000000000000000,0.00000000000000000
1.18007445335388184,-24.29497546674637931,55.40744018454220310,32.07084722425897638,0.67408687546842394,-0.00382074959317112,0.00204390524744476,0.73863936304877709,0.00000000000000000,0.00000000000000000,0.00000000000000000,0.00000000000000000,0.00000000000000000,0.00000000000000000,0.00000000000000000,0.00000000000000000,0.00000000000000000
1.19016337394714355,-24.34996757313317062,55.41722743783814309,32.08885314132701438,0.67405071347328438,-0.00374507269060705,0.00216487531568196,0.73867240601742079,0.00000000000000000,0.00000000000000000,0.00000000000000000,0.00000000000000000,0.00000000000000000,0.00000000000000000,0.00000000000000000,0.00000000000000000,0.00000000000000000
1.20014071464538574,-24.34049499131651828,55.41187924749079485,32.08465631602654611,0.67403036172558972,-0.00380749414786854,0.00217734756018572,0.73869062104374039,0.00000000000000000,0.00000000000000000,0.00000000000000000,0.00000000000000000,0.00000000000000000,0.00000000000000000,0.00000000000000000,0.00000000000000000,0.00000000000000000
1.21023368835449219,-24.32439013668859218,55.38875885308902269,32.07685094830708294,0.67403572663945577,-0.00376786994462836,0.00219874566337526,0.73868586549845994,0.00000000000000000,0.00000000000000000,0.00000000000000000,0.00000000000000000,0.00000000000000000,0.00000000000000000,0.00000000000000000,0.00000000000000000,0.00000000000000000
1.22023224830627441,-24.30236614708192633,55.38926503771887155,32.06011311285501364,0.67401498666692017,-0.00384335602748723,0.00212421978021244,0.73870461894668249,0.00000000000000000,0.00000000000000000,0.00000000000000000,0.00000000000000000,0.00000000000000000,0.00000000000000000,0.00000000000000000,0.00000000000000000,0.00000000000000000
1.23016977310180664,-24.28357498712526308,55.42244589836800372,32.05500214437924456,0.67411369780657548,-0.00378244657456179,0.00208119958595087,0.73861497692352474,0.00000000000000000,0.00000000000000000,0.00000000000000000,0.00000000000000000,0.00000000000000000,0.00000000000000000,0.00000000000000000,0.00000000000000000,0.00000000000000000
1.24030375480651855,-24.29116751363425308,55.39178607847328095,32.05287583973006349,0.67400149459699588,-0.00382613087289466,0.00212847119433257,0.73871700644694405,0.00000000000000000,0.00000000000000000,0.00000000000000000,0.00000000000000000,0.00000000000000000,0.00000000000000000,0.00000000000000000,0.00000000000000000,0.00000000000000000
1.25014400482177734,-24.33797110651197571,55.41290745046668320,32.07200478660148946,0.67406364489822801,-0.00378597863900793,0.00213730800368451,0.73866047742298890,0.00000000000000000,0.00000000000000000,0.00000000000000000,0.00000000000000000,0.00000000000000000,0.00000000000000000,0.00000000000000000,0.00000000000000000,0.00000000000000000
1.26017069816589355,-24.34451172509384875,55.42008840510371925,32.07141961501022109,0.67405501183304095,-0.00368840978190436,0.00218985446999188,0.73866869514921241,0.00000000000000000,0.00000000000000000,0.00000000000000000,0.00000000000000000,0.00000000000000000,0.00000000000000000,0.00000000000000000,0.00000000000000000,0.00000000000000000
1.27011942863464355,-24.30810058602908796,55.37383588528399514,32.05901754382180258,0.67402054678031742,-0.00384635868550996,0.00217993139728409,0.73869936776873379,0.00000000000000000,0.00000000000000000,0.00000000000000000,0.00000000000000000,0.00000000000000000,0.00000000000000000,0.00000000000000000,0.00000000000000000,0.00000000000000000
1.28007364273071289,-24.32095056747304440,55.38112089626332590,32.03782047989424342,0.67408857479309914,-0.00380560876390374,0.00213209330787664,0.73863764110250341,0.00000000000000000,0.00000000000000000,0.00000000000000000,0.00000000000000000,0.00000000000000000,0.00000000000000000,0.00000000000000000,0.00000000000000000,0.00000000000000000
1.29008340835571289,-24.32495841522708702,55.39012085931364737,32.03121902202250482,0.67402942355156636,-0.00378791607176038,0.00216226903413301,0.73869162203940031,0.00000000000000000,0.00000000000000000,0.00000000000000000,0.00000000000000000,0.00000000000000000,0.00000000000000000,0.00000000000000000,0.00000000000000000,0.00000000000000000
1.30014944076538086,-24.34753912351166250,55.40110084748422281,32.07091929566207966,0.67406605213504178,-0.00375964843938621,0.00216955272285797,0.73865832117676289,0.00000000000000000,0.00000000000000000,0.00000000000000000,0.00000000000000000,0.00000000000000000,0.00000000000000000,0.00000000000000000,0.00000000000000000,0.00000000000000000
1.31009435653686523,-24.30495993030552881,55.41566998691229173,32.04529153987158452,0.67408962144412887,-0.00374023157839070,0.00216414268277453,0.73863692665307501,0.00000000000000000,0.00000000000000000,0.00000000000000000,0.00000000000000000,0.00000000000000000,0.00000000000000000,0.00000000000000000,0.00000000000000000,0.00000000000000000
1.32009148597717285,-24.28891732586248509,55.40569212737629101,32.05949918011574340,0.67405714377937231,-0.00384455078271967,0.00207860029412425,0.73866627496460890,0.00000000000000000,0.00000000000000000,0.00000000000000000,0.00000000000000000,0.00000000000000000,0.00000000000000000,0.00000000000000000,0.00000000000000000,0.00000000000000000
1.33009004592895508,-24.29373477757587452,55.39546933060579903,32.04670400807963659,0.67406373493229632,-0.00383522124600817,0.00210450595081042,0.73866023541396919,0.00000000000000000,0.00000000000000000,0.00000000000000000,0.00000000000000000,0.00000000000000000,0.00000000000000000,0.00000000000000000,0.00000000000000000,0.00000000000000000
1.34010004997253418,-24.28220690663162529,55.41340386344398894,32.07595058850110803,0.67404255086661613,-0.00382075481741212,0.00206703156996848,0.73867974713967843,0.00000000000000000,0.00000000000000000,0.00000000000000000,0.00000000000000000,0.00000000000000000,0.00000000000000000,0.00000000000000000,0.00000000000000000,0.00000000000000000
1.35017752647399902,-24.36039509253594204,55.40561538398131347,32.06463404225601010,0.67407944475293546,-0.00371422673767674,0.00220706414839354,0.73864621812418430,0.00000000000000000,0.00000000000000000,0.00000000000000000,0.00000000000000000,0.00000000000000000,0.00000000000000000,0.00000000000000000,0.00000000000000000,0.00000000000000000
1.36010074615478516,-24.33544385569263113,55.39525969272042261,32.08605727372988525,0.67400071764546066,-0.00376591211986125,0.00216856420904500,0.73871790816832161,0.00000000000000000,0.00000000000000000,0.00000000000000000,0.00000000000000000,0.00000000000000000,0.00000000000000000,0.00000000000000000,0.00000000000000000,0.00000000000000000
1.37008261680603027,-24.26166323396157054,55.37404450353233187,32.06463803656478717,0.67410297608198555,-0.00387327672183860,0.00212127435719200,0.73862417748131370,0.00000000000000000,0.00000000000000000,0.00000000000000000,0.00000000000000000,0.00000000000000000,0.00000000000000000,0.00000000000000000,0.00000000000000000,0.00000000000000000
1.38008213043212891,-24.30933189594921373,55.38425559008652499,32.06941588904989260,0.67403696754308051,-0.00382626392054694,0.00210813600744351,0.73868469718298113,0.00000000000000000,0.00000000000000000,0.00000000000000000,0.00000000000000000,0.00000000000000000,0.00000000000000000,0.00000000000000000,0.00000000000000000,0.00000000000000000
1.39007258415222168,-24.27263140695973220,55.40957021297945317,32.07419694066017968,0.67407076081216477,-0.00383486534475091,0.00210511188266650,0.73865382401356183,0.00000000000000000,0.00000000000000000,0.00000000000000000,0.00000000000000000,0.00000000000000000,0.00000000000000000,0.00000000000000000,0.00000000000000000,0.00000000000000000
1.40008735656738281,-24.30575121918029424,55.40098314881947772,32.08464309875624565,0.67409022654788142,-0.00382225085908094,0.00215053595355839,0.73863599429360927,0.00000000000000000,0.00000000000000000,0.00000000000000000,0.00000000000000000,0.00000000000000000,0.00000000000000000,0.00000000000000000,0.00000000000000000,0.00000000000000000
1.41009306907653809,-24.29131605191994581,55.39644766113892871,32.06161997240045025,0.67404993382702472,-0.00382504964680634,0.00216079407378173,0.73867271959370029,0.00000000000000000,0.00000000000000000,0.00000000000000000,0.00000000000000000,0.00000000000000000,0.00000000000000000,0.00000000000000000,0.00000000000000000,0.00000000000000000
1.42007827758789062,-24.26495515744467468,55.38022109639805279,32.05498474056076930,0.67404840631254792,-0.00390782695803114,0.00212031113211828,0.73867379750244500,0.00000000000000000,0.00000000000000000,0.00000000000000000,0.00000000000000000,0.00000000000000000,0.00000000000000000,0.00000000000000000,0.00000000000000000,0.00000000000000000
1.43009185791015625,-24.27669666306384499,55.39543976257542823,32.04611255719084539,0.67409810499931133,-0.00382511929479955,0.00211445008095699,0.73862889355858052,0.00000000000000000,0.00000000000000000,0.00000000000000000,0.00000000000000000,0.00000000000000000,0.00000000000000000,0.00000000000000000,0.00000000000000000,0.00000000000000000
1.44008278846740723,-24.25408034073833008,55.39235406102514503,32.05166017788609167,0.67404005143100587,-0.00386904233509530,0.00215459897494500,0.73868152628961370,0.00000000000000000,0.00000000000000000,0.00000000000000000,0.00000000000000000,0.00000000000000000,0.00000000000000000,0.00000000000000000,0.00000000000000000,0.00000000000000000
1.45018148422241211,-24.30727311384623590,55.39581013409662091,32.09629707746527316,0.67401825403696702,-0.00385606784495286,0.00210837021600350,0.73870161685268143,0.00000000000000000,0.00000000000000000,0.00000000000000000,0.00000000000000000,0.00000000000000000,0.00000000000000000,0.00000000000000000,0.00000000000000000,0.00000000000000000
1.46006536483764648,-24.32395836012519297,55.41066218974257396,32.06322511405716114,0.67403618052973813,-0.00376657805101910,0.00216146231997994,0.73868556795656071,0.00000000000000000,0.00000000000000000,0.00000000000000000,0.00000000000000000,0.00000000000000000,0.00000000000000000,0.00000000000000000,0.00000000000000000,0.00000000000000000
1.47005510330200195,-24.28452707603278427,55.42851198320919792,32.10382741670914442,0.67402125851710237,-0.00383350473928624,0.00196887167334304,0.73869937786136608,0.00000000000000000,0.00000000000000000,0.00000000000000000,0.00000000000000000,0.00000000000000000,0.00000000000000000,0.00000000000000000,0.00000000000000000,0.00000000000000000
1.48006772994995117,-24.34777523568071800,55.39298207880849390,32.07856902557059442,0.67408205203257210,-0.00377631292774002,0.00216228231594077,0.73864365638879947,0.00000000000000000,0.00000000000000000,0.00000000000000000,0.00000000000000000,0.00000000000000000,0.00000000000000000,0.00000000000000000,0.00000000000000000,0.00000000000000000
1.49007821083068848,-24.30043410184974206,55.40312284911544793,32.05330959461952034,0.67404977801544241,-0.00380031042555602,0.00206541092471811,0.73867326232625630,0.00000000000000000,0.00000000000000000,0.00000000000000000,0.00000000000000000,0.00000000000000000,0.00000000000000000,0.00000000000000000,0.00000000000000000,0.00000000000000000
1.50018024444580078,-24.29327570067346542,55.43268140889720286,32.09190063731119835,0.67407822753594804,-0.00376912158473727,0.00207257930966813,0.73864744046092723,0.00000000000000000,0.00000000000000000,0.00000000000000000,0.00000000000000000,0.00000000000000000,0.00000000000000000,0.00000000000000000,0.00000000000000000,0.00000000000000000
1.51004099845886230,-24.32380028847156339,55.38656416043803432,32.06261605822085414,0.67402327317645183,-0.00377361563436898,0.00221552656703691,0.73869714936743669,0.00000000000000000,0.00000000000000000,0.00000000000000000,0.00000000000000000,0.00000000000000000,0.00000000000000000,0.00000000000000000,0.00000000000000000,0.00000000000000000
1.52006483078002930,-24.28875062794339712,55.41888658204030804,32.07296750040386968,0.67406080084984010,-0.00376947395635139,0.00208295096035500,0.73866331243609284,0.00000000000000000,0.00000000000000000,0.00000000000000000,0.00000000000000000,0.00000000000000000,0.00000000000000000,0.00000000000000000,0.00000000000000000,0.00000000000000000
1.53007507324218750,-24.28127545101661511,55.39724118530583752,32.05866453170494168,0.67406869692141780,-0.00382491204230341,0.00205296160245284,0.73865590583653340,0.00000000000000000,0.00000000000000000,0.00000000000000000,0.00000000000000000,0.00000000000000000,0.00000000000000000,0.00000000000000000,0.00000000000000000,0.00000000000000000
1.54009485244750977,-24.27668705237465474,55.40186306552669748,32.05510177353333745,0.67403474928674079,-0.00379539923038773,0.00209636210075079,0.73868691403366893,0.00000000000000000,0.00000000000000000,0.00000000000000000,0.00000000000000000,0.00000000000000000,0.00000000000000000,0.00000000000000000,0.00000000000000000,0.00000000000000000
1.55018544197082520,-24.32766978117397727,55.40339152402552969,32.04764564857463682,0.67406777768487514,-0.00371510230301566,0.00218048040230322,0.73865693972714230,0.00000000000000000,0.00000000000000000,0.00000000000000000,0.00000000000000000,0.00000000000000000,0.00000000000000000,0.00000000000000000,0.00000000000000000,0.00000000000000000
1.56013560295104980,-24.31223932604782689,55.41051616527315815,32.04469168757660924,0.67406157173313652,-0.00378422245208078,0.00221280235904987,0.73866215598120788,0.00000000000000000,0.00000000000000000,0.00000000000000000,0.00000000000000000,0.00000000000000000,0.00000000000000000,0.00000000000000000,0.00000000000000000,0.00000000000000000
1.57008433341979980,-24.27484586313234516,55.39500322726322423,32.05709645257810081,0.67406736242199838,-0.00381791212935668,0.00217517674724662,0.73865681007524786,0.00000000000000000,0.00000000000000000,0.00000000000000000,0.00000000000000000,0.00000000000000000,0.00000000000000000,0.00000000000000000,0.00000000000000000,0.00000000000000000
1.58008289337158203,-24.35527066719512845,55.37895636608215710,32.10505102631461227,0.67401594845549007,-0.00373078790139736,0.00212962187008473,0.73870430292504163,0.00000000000000000,0.00000000000000000,0.00000000000000000,0.00000000000000000,0.00000000000000000,0.00000000000000000,0.00000000000000000,0.00000000000000000,0.00000000000000000
1.59009146690368652,-24.33740457255816025,55.38625815927513685,32.06245527461155120,0.67403327049128037,-0.00375748983196992,0.00220354661448416,0.73868814524351856,0.00000000000000000,0.00000000000000000,0.00000000000000000,0.00000000000000000,0.00000000000000000,0.00000000000000000,0.00000000000000000,0.00000000000000000,0.00000000000000000
1.60013484954833984,-24.34575695390931571,55.40972724735406274,32.06061410841873993,0.67407744159002980,-0.00371353183727314,0.00223350800858352,0.73864797018790296,0.00000000000000000,0.00000000000000000,0.00000000000000000,0.00000000000000000,0.00000000000000000,0.00000000000000000,0.00000000000000000,0.00000000000000000,0.00000000000000000
1.61009478569030762,-24.31670635371834166,55.40310179196833218,32.04478999999761157,0.67408412263688133,-0.00371797370951363,0.00223313991763435,0.73864185189201781,0.00000000000000000,0.00000000000000000,0.00000000000000000,0.00000000000000000,0.00000000000000000,0.00000000000000000,0.00000000000000000,0.00000000000000000,0.00000000000000000
1.62008714675903320,-24.30394793801900732,55.37705292401083312,32.05965146376581032,0.67405859361232201,-0.00379133270319493,0.00220571192749743,0.73866485838207141,0.00000000000000000,0.00000000000000000,0.00000000000000000,0.00000000000000000,0.00000000000000000,0.00000000000000000,0.00000000000000000,0.00000000000000000,0.00000000000000000
1.63008785247802734,-24.29602852224126153,55.38956686874342239,32.05099129044927508,0.67404758901812534,-0.00382008815108816,0.00221234308000895,0.73867473234399095,0.00000000000000000,0.00000000000000000,0.00000000000000000,0.00000000000000000,0.00000000000000000,0.00000000000000000,0.00000000000000000,0.00000000000000000,0.00000000000000000
1.64007425308227539,-24.30010497792637736,55.40522371782236632,32.05588651541388145,0.67408018209174736,-0.00377063975720196,0.00220818485125546,0.73864525606453380,0.00000000000000000,0.00000000000000000,0.00000000000000000,0.00000000000000000,0.00000000000000000,0.00000000000000000,0.00000000000000000,0.00000000000000000,0.00000000000000000
1.65016603469848633,-24.31767853560880965,55.40311507886487874,32.07843694391881684,0.67404742622890690,-0.00381766678438584,0.00213450576054522,0.73867512243182287,0.00000000000000000,0.00000000000000000,0.00000000000000000,0.00000000000000000,0.00000000000000000,0.00000000000000000,0.00000000000000000,0.00000000000000000,0.00000000000000000
1.66010189056396484,-24.30945595764413270,55.43171512194184203,32.05179800513884913,0.67408833162349358,-0.00370471012023137,0.00222470752719204,0.73863810284089593,0.00000000000000000,0.00000000000000000,0.00000000000000000,0.00000000000000000,0.00000000000000000,0.00000000000000000,0.00000000000000000,0.00000000000000000,0.00000000000000000
1.67008471488952637,-24.30292818605680694,55.39528417320531872,32.03121123331238351,0.67410349088873667,-0.00375326625152693,0.00221214779237906,0.73862406064669217,0.00000000000000000,0.00000000000000000,0.00000000000000000,0.00000000000000000,0.00000000000000000,0.00000000000000000,0.00000000000000000,0.00000000000000000,0.00000000000000000
1.68008160591125488,-24.31167301215484144,55.40364841452818467,32.03550285965726374,0.67417609893174435,-0.00370720494908303,0.00215564087569841,0.73855818827838859,0.00000000000000000,0.00000000000000000,0.00000000000000000,0.00000000000000000,0.00000000000000000,0.00000000000000000,0.00000000000000000,0.00000000000000000,0.00000000000000000
1.69008040428161621,-24.36615399273948768,55.36394024831178484,32.04451923885155651,0.67408631449800249,-0.00372940839324846,0.00238372845823140,0.73863932332240056,0.00000000000000000,0.00000000000000000,0.00000000000000000,0.00000000000000000,0.00000000000000000,0.00000000000000000,0.00000000000000000,0.00000000000000000,0.00000000000000000
1.70014524459838867,-24.30278612441263064,55.43902548972719302,32.04874180343662005,0.67406753113067241,-0.00377976352714461,0.00214990710896445,0.73865692629427215,0.00000000000000000,0.00000000000000000,0.00000000000000000,0.00000000000000000,0.00000000000000000,0.00000000000000000,0.00000000000000000,0.00000000000000000,0.00000000000000000
1.71009969711303711,-24.30315994436013227,55.40111239990591940,32.05039045479021098,0.67405982285332622,-0.00379406858974856,0.00220564125942957,0.73866372281648829,0.00000000000000000,0.00000000000000000,0.00000000000000000,0.00000000000000000,0.00000000000000000,0.00000000000000000,0.00000000000000000,0.00000000000000000,0.00000000000000000
1.72007179260253906,-24.26396291631588653,55.38496201865397239,32.05944943951217141,0.67408211267199336,-0.00386775750402514,0.00213877174857292,0.73864319632889053,0.00000000000000000,0.00000000000000000,0.00000000000000000,0.00000000000000000,0.00000000000000000,0.00000000000000000,0.00000000000000000,0.00000000000000000,0.00000000000000000
1.73008680343627930,-24.31583229861639595,55.38942622527260795,32.03108575975495143,0.67408170658412681,-0.00379723877158913,0.00223723388459352,0.73864364114970082,0.00000000000000000,0.00000000000000000,0.00000000000000000,0.00000000000000000,0.00000000000000000,0.00000000000000000,0.00000000000000000,0.00000000000000000,0.00000000000000000
1.74006843566894531,-24.28976873517150281,55.41231811607953972,32.05600589490363461,0.67402937148524056,-0.00376693523657693,0.00213257591343117,0.73869186315682955,0.00000000000000000,0.00000000000000000,0.00000000000000000,0.00000000000000000,0.00000000000000000,0.00000000000000000,0.00000000000000000,0.00000000000000000,0.00000000000000000
1.75013780593872070,-24.33476677807084343,55.39867361469320173,32.08247323996441480,0.67408508007698587,-0.00373474468354007,0.00221379393808558,0.73864095175948108,0.00000000000000000,0.00000000000000000,0.00000000000000000,0.00000000000000000,0.00000000000000000,0.00000000000000000,0.00000000000000000,0.00000000000000000,0.00000000000000000
1.76009798049926758,-24.25614671989582760,55.39346574587059280,32.05949718844866680,0.67408186708424722,-0.00382014652993485,0.00220004910439218,0.73864348824899517,0.00000000000000000,0.00000000000000000,0.00000000000000000,0.00000000000000000,0.00000000000000000,0.00000000000000000,0.00000000000000000,0.00000000000000000,0.00000000000000000
1.77008533477783203,-24.27468859601187390,55.36754993684771620,32.02727449946147686,0.67405350116126383,-0.00385359313924146,0.00218450960586903,0.73866924621913210,0.00000000000000000,0.00000000000000000,0.00000000000000000,0.00000000000000000,0.00000000000000000,0.00000000000000000,0.00000000000000000,0.00000000000000000,0.00000000000000000
1.78007364273071289,-24.28263002009998672,55.36811110813744108,32.02284833524064567,0.67407904107511019,-0.00385853557883542,0.00217901229429530,0.73864593005842027,0.00000000000000000,0.00000000000000000,0.00000000000000000,0.00000000000000000,0.00000000000000000,0.00000000000000000,0.00000000000000000,0.00000000000000000,0.00000000000000000
1.79008030891418457,-24.27932979801297009,55.37878075403156686,32.04009901435019714,0.67401821744530710,-0.00380365755327804,0.00218800657927655,0.73870169037865130,0.00000000000000000,0.00000000000000000,0.00000000000000000,0.00000000000000000,0.00000000000000000,0.00000000000000000,0.00000000000000000,0.00000000000000000,0.00000000000000000
1.80012559890747070,-24.30648822283933441,55.37920901671224527,32.06065584027196991,0.67403978381168772,-0.00380614592211747,0.00226071508471969,0.73868178010535712,0.00000000000000000,0.00000000000000000,0.00000000000000000,0.00000000000000000,0.00000000000000000,0.00000000000000000,0.00000000000000000,0.00000000000000000,0.00000000000000000
1.81009793281555176,-24.30669781532863638,55.38905373512363894,32.03604550481497171,0.67404335207786303,-0.00377397054949516,0.00225923311726439,0.73867869370359640,0.00000000000000000,0.00000000000000000,0.00000000000000000,0.00000000000000000,0.00000000000000000,0.00000000000000000,0.00000000000000000,0.00000000000000000,0.00000000000000000
1.82006835937500000,-24.33473666562294113,55.36308659874635651,32.04343320822241736,0.67406376062938833,-0.00380381717221576,0.00230883963675187,0.73865976392424360,0.00000000000000000,0.00000000000000000,0.00000000000000000,0.00000000000000000,0.00000000000000000,0.00000000000000000,0.00000000000000000,0.00000000000000000,0.00000000000000000
1.83008956909179688,-24.30481465152130838,55.37439205007867571,32.06067437431248379,0.67409358525060792,-0.00380502729410874,0.00219901792528744,0.73863287525768639,0.00000000000000000,0.00000000000000000,0.00000000000000000,0.00000000000000000,0.00000000000000000,0.00000000000000000,0.00000000000000000,0.00000000000000000,0.00000000000000000
1.84006667137145996,-24.27070813560989038,55.38834008248971941,32.04071499464087935,0.67403437092884366,-0.00379343139894406,0.00217595714108373,0.73868703920895973,0.00000000000000000,0.00000000000000000,0.00000000000000000,0.00000000000000000,0.00000000000000000,0.00000000000000000,0.00000000000000000,0.00000000000000000,0.00000000000000000
1.85015773773193359,-24.29198313551781396,55.40339105422089006,32.04896864383254496,0.67408884267167635,-0.00377352440734879,0.00218285410697780,0.73863741297544272,0.00000000000000000,0.00000000000000000,0.00000000000000000,0.00000000000000000,0.00000000000000000,0.00000000000000000,0.00000000000000000,0.00000000000000000,0.00000000000000000
1.86010050773620605,-24.27459443282727491,55.37493084389416254,32.02973191846258061,0.67409182006475499,-0.00381950297535037,0.00224451235434219,0.73863427464686349,0.00000000000000000,0.00000000000000000,0.00000000000000000,0.00000000000000000,0.00000000000000000,0.00000000000000000,0.00000000000000000,0.00000000000000000,0.00000000000000000
1.87009048461914062,-24.37570949737144943,55.37049787151380542,32.03835579653156174,0.67407382184780407,-0.00370742638194195,0.00238749771389485,0.73865082247553437,0.00000000000000000,0.00000000000000000,0.00000000000000000,0.00000000000000000,0.00000000000000000,0.00000000000000000,0.00000000000000000,0.00000000000000000,0.00000000000000000
1.88009381294250488,-24.34402122469652952,55.38945374611080297,32.05213902236387469,0.67404414567955151,-0.00373136213663154,0.00221211902937756,0.73867832859853721,0.00000000000000000,0.00000000000000000,0.00000000000000000,0.00000000000000000,0.00000000000000000,0.00000000000000000,0.00000000000000000,0.00000000000000000,0.00000000000000000
1.89004111289978027,-24.34448382814408873,55.37918225349107360,32.05708727949913595,0.67410700198452200,-0.00372708737202084,0.00226327409193800,0.73862083390975752,0.00000000000000000,0.00000000000000000,0.00000000000000000,0.00000000000000000,0.00000000000000000,0.00000000000000000,0.00000000000000000,0.00000000000000000,0.00000000000000000
1.90012717247009277,-24.32911520021214002,55.37627642572659425,32.06557255913961768,0.67404203780678051,-0.00380344687042012,0.00229739621892460,0.73867962408056176,0.00000000000000000,0.00000000000000000,0.00000000000000000,0.00000000000000000,0.00000000000000000,0.00000000000000000,0.00000000000000000,0.00000000000000000,0.00000000000000000
1.91007566452026367,-24.30272819402726725,55.38073988828970329,32.05847783407219254,0.67407285494256486,-0.00377698301137632,0.00225923416066103,0.73865175589713383,0.00000000000000000,0.00000000000000000,0.00000000000000000,0.00000000000000000,0.00000000000000000,0.00000000000000000,0.00000000000000000,0.00000000000000000,0.00000000000000000
1.92007207870483398,-24.28988643401585890,55.40017131529637595,32.08434513200800353,0.67405981848892871,-0.00383144305128281,0.00207426498163232,0.73866391448858726,0.00000000000000000,0.00000000000000000,0.00000000000000000,0.00000000000000000,0.00000000000000000,0.00000000000000000,0.00000000000000000,0.00000000000000000,0.00000000000000000
1.93008852005004883,-24.30988099885523823,55.35074228797301288,32.06619183569875275,0.67399083407790972,-0.00384796667292978,0.00220732211479335,0.73872638809002122,0.00000000000000000,0.00000000000000000,0.00000000000000000,0.00000000000000000,0.00000000000000000,0.00000000000000000,0.00000000000000000,0.00000000000000000,0.00000000000000000
1.94006705284118652,-24.27160441105627697,55.40143655734971162,32.06708608111014058,0.67406268013399018,-0.00382149193997114,0.00211867939661501,0.73866122860723449,0.00000000000000000,0.00000000000000000,0.00000000000000000,0.00000000000000000,0.00000000000000000,0.00000000000000000,0.00000000000000000,0.00000000000000000,0.00000000000000000
1.95015406608581543,-24.29765235730611650,55.40223519161935428,32.04714206225475692,0.67407755428813820,-0.00381000498806505,0.00217553801073856,0.73864754903896945,0.00000000000000000,0.00000000000000000,0.00000000000000000,0.00000000000000000,0.00000000000000000,0.00000000000000000,0.00000000000000000,0.00000000000000000,0.00000000000000000
1.96008276939392090,-24.32236915663333221,55.40749482857093966,32.05587149164018257,0.67404795557935415,-0.00371952944602558,0.00226282302490362,0.73867475813916339,0.00000000000000000,0.00000000000000000,0.00000000000000000,0.00000000000000000,0.00000000000000000,0.00000000000000000,0.00000000000000000,0.00000000000000000,0.00000000000000000
1.97007942199707031,-24.29017623364364553,55.36413995363764684,32.04579736561839098,0.67406727178110348,-0.00383721173611199,0.00220656502772490,0.73865669968561876,0.00000000000000000,0.00000000000000000,0.00000000000000000,0.00000000000000000,0.00000000000000000,0.00000000000000000,0.00000000000000000,0.00000000000000000,0.00000000000000000
1.98006272315979004,-24.28365624487208763,55.36324118287234342,32.04557186398955793,0.67403977613802823,-0.00386527593114519,0.00218394134562597,0.73868171104067026,0.00000000000000000,0.00000000000000000,0.00000000000000000,0.00000000000000000,0.00000000000000000,0.00000000000000000,0.00000000000000000,0.00000000000000000,0.00000000000000000
1.99004101753234863,-24.30680204970971658,55.37977766010982350,32.03584909433774186,0.67402853133715568,-0.00378761408964789,0.00221171630583421,0.73869229130536296,0.00000000000000000,0.00000000000000000,0.00000000000000000,0.00000000000000000,0.00000000000000000,0.00000000000000000,0.00000000000000000,0.00000000000000000,0.00000000000000000
2.00006294250488281,-24.33651540213044129,55.41531568949065445,32.06244367844884380,0.67412136043982018,-0.00370835561494062,0.00222226278809700,0.73860794813317532,0.00000000000000000,0.00000000000000000,0.00000000000000000,0.00000000000000000,0.00000000000000000,0.00000000000000000,0.00000000000000000,0.00000000000000000,0.00000000000000000
2.01003909111022949,-24.34044928852833323,55.38750412910533782,32.04349739524335661,0.67400329160377570,-0.00375617259949925,0.00232696287619063,0.73871512731123323,0.00000000000000000,0.00000000000000000,0.00000000000000000,0.00000000000000000,0.00000000000000000,0.00000000000000000,0.00000000000000000,0.00000000000000000,0.00000000000000000
2.02006554603576660,-24.32871089429501410,55.38362558909696531,32.03630004374890206,0.67404046579178500,-0.00376811025049890,0.00225578744524287,0.73868136787341265,0.00000000000000000,0.00000000000000000,0.00000000000000000,0.00000000000000000,0.00000000000000000,0.00000000000000000,0.00000000000000000,0.00000000000000000,0.00000000000000000
2.03008270263671875,-24.27449063392387529,55.39880012093954065,32.06323764517875219,0.67409973750594143,-0.00377203416088129,0.00222094918951688,0.73862736412714058,0.00000000000000000,0.00000000000000000,0.00000000000000000,0.00000000000000000,0.00000000000000000,0.00000000000000000,0.00000000000000000,0.00000000000000000,0.00000000000000000
2.04007768630981445,-24.32755821518954420,55.37693368143644790,32.05383982610074867,0.67404358507325479,-0.00371819054328659,0.00226086090495021,0.73867875899381719,0.00000000000000000,0.00000000000000000,0.00000000000000000,0.00000000000000000,0.00000000000000000,0.00000000000000000,0.00000000000000000,0.00000000000000000,0.00000000000000000
2.05015206336975098,-24.34000941562005593,55.44039336858821798,32.04863278451291109,0.67416238321075683,-0.00373430562099249,0.00213719510526014,0.73857062520939942,0.00000000000000000,0.00000000000000000,0.00000000000000000,0.00000000000000000,0.00000000000000000,0.00000000000000000,0.00000000000000000,0.00000000000000000,0.00000000000000000
2.06011128425598145,-24.33743021970770926,55.39004362100056511,32.02903129752461808,0.67401593185225517,-0.00373635508448672,0.00230413276343084,0.73870376622312384,0.00000000000000000,0.00000000000000000,0.00000000000000000,0.00000000000000000,0.00000000000000000,0.00000000000000000,0.00000000000000000,0.00000000000000000,0.00000000000000000
2.07007431983947754,-24.31006735547921949,55.37408537457974944,32.04234534222864283,0.67407647773453439,-0.00376569606660496,0.00226104716059232,0.73864850190322284,0.00000000000000000,0.00000000000000000,0.00000000000000000,0.00000000000000000,0.00000000000000000,0.00000000000000000,0.00000000000000000,0.00000000000000000,0.00000000000000000
2.08007526397705078,-24.30111181207184856,55.34910093885412152,32.04040757748685309,0.67406836158262595,-0.00382761486606785,0.00227365388840535,0.73865555150946183,0.00000000000000000,0.00000000000000000,0.00000000000000000,0.00000000000000000,0.00000000000000000,0.00000000000000000,0.00000000000000000,0.00000000000000000,0.00000000000000000
2.09007430076599121,-24.29882800560010381,55.37926586674949903,32.03757154127377760,0.67403105299577448,-0.00379552633750685,0.00220999280319822,0.73868995492631329,0.00000000000000000,0.00000000000000000,0.00000000000000000,0.00000000000000000,0.00000000000000000,0.00000000000000000,0.00000000000000000,0.00000000000000000,0.00000000000000000
2.10010695457458496,-24.28943553940131395,55.41230375117496010,32.08881428464798802,0.67409782885981462,-0.00380536598102077,0.00212752407380781,0.73862921006249804,0.00000000000000000,0.00000000000000000,0.00000000000000000,0.00000000000000000,0.00000000000000000,0.00000000000000000,0.00000000000000000,0.00000000000000000,0.00000000000000000
2.11015367507934570,-24.33471941369917602,55.41270934632490963,32.04353939804648377,0.67405174529858725,-0.00368874909722277,0.00225365596467751,0.73867148234165592,0.00000000000000000,0.00000000000000000,0.00000000000000000,0.00000000000000000,0.00000000000000000,0.00000000000000000,0.00000000000000000,0.00000000000000000,0.00000000000000000
2.12012243270874023,-24.29063593309195923,55.38788080761040789,32.04014365366474948,0.67407219131329577,-0.00382002282455640,0.00223271339593799,0.73865222081477766,0.00000000000000000,0.00000000000000000,0.00000000000000000,0.00000000000000000,0.00000000000000000,0.00000000000000000,0.00000000000000000,0.00000000000000000,0.00000000000000000
2.13018155097961426,-24.30027671480212703,55.38131799968579116,32.05231855252892359,0.67407705436917431,-0.00379748683957908,0.00221173818487419,0.73864796221263751,0.00000000000000000,0.00000000000000000,0.00000000000000000,0.00000000000000000,0.00000000000000000,0.00000000000000000,0.00000000000000000,0.00000000000000000,0.00000000000000000
2.14032793045043945,-24.25924740635374732,55.40274407310997873,32.03867911763461507,0.67408817671229171,-0.00380071436354323,0.00214782276529830,0.73863798402491732,0.00000000000000000,0.00000000000000000,0.00000000000000000,0.00000000000000000,0.00000000000000000,0.00000000000000000,0.00000000000000000,0.00000000000000000,0.00000000000000000
2.15017652511596680,-24.32225650051080379,55.40612482550363183,32.07429691790564164,0.67408569850436506,-0.00379975421024543,0.00218642803657064,0.73864013732822875,0.00000000000000000,0.00000000000000000,0.00000000000000000,0.00000000000000000,0.00000000000000000,0.00000000000000000,0.00000000000000000,0.00000000000000000,0.00000000000000000
2.16017174720764160,-24.30749420943871186,55.44094486476441830,32.03957453996603988,0.67409829243669017,-0.00374833346910174,0.00214764782307484,0.73862902037421374,0.00000000000000000,0.00000000000000000,0.00000000000000000,0.00000000000000000,0.00000000000000000,0.00000000000000000,0.00000000000000000,0.00000000000000000,0.00000000000000000
2.17018461227416992,-24.30906000250494614,55.38356677872057077,32.05453535896875650,0.67404120143872726,-0.00379460772231918,0.00220717953338366,0.73868070779855766,0.00000000000000000,0.00000000000000000,0.00000000000000000,0.00000000000000000,0.00000000000000000,0.00000000000000000,0.00000000000000000,0.00000000000000000,0.00000000000000000
2.18013477325439453,-24.30060607216461577,55.39229575521051174,32.02399088616374456,0.67409078866959327,-0.00378784224029874,0.00224095315575465,0.73863538976339471,0.00000000000000000,0.00000000000000000,0.00000000000000000,0.00000000000000000,0.00000000000000000,0.00000000000000000,0.00000000000000000,0.00000000000000000,0.00000000000000000
2.19014167785644531,-24.34940130056257601,55.41019071361123594,32.03391285145220735,0.67409552725535093,-0.00369008399075745,0.00232413654433401,0.73863130302187630,0.00000000000000000,0.00000000000000000,0.00000000000000000,0.00000000000000000,0.00000000000000000,0.00000000000000000,0.00000000000000000,0.00000000000000000,0.00000000000000000
2.20015263557434082,-24.29464086866638084,55.40069190371940522,32.05137306562240695,0.67408143038917701,-0.00379623810597705,0.00227842292316630,0.73864377244359636,0.00000000000000000,0.00000000000000000,0.00000000000000000,0.00000000000000000,0.00000000000000000,0.00000000000000000,0.00000000000000000,0.00000000000000000,0.00000000000000000
2.21018362045288086,-24.28186146896858233,55.39375866091101130,32.05662831966674986,0.67409526321474211,-0.00375276219602461,0.00226599497902748,0.73863140885972567,0.00000000000000000,0.00000000000000000,0.00000000000000000,0.00000000000000000,0.00000000000000000,0.00000000000000000,0.00000000000000000,0.00000000000000000,0.00000000000000000
2.22013759613037109,-24.28866963820727776,55.41464069535278014,32.03822137084186039,0.67407717039696979,-0.00373260133714748,0.00220384581797221,0.73864821065273223,0.00000000000000000,0.00000000000000000,0.00000000000000000,0.00000000000000000,0.00000000000000000,0.00000000000000000,0.00000000000000000,0.00000000000000000,0.00000000000000000
2.23018479347229004,-24.29113501705776912,55.39094612643367554,32.03195938906734597,0.67405853387757331,-0.00380629290858677,0.00220979748285664,0.73866482374362130,0.00000000000000000,0.00000000000000000,0.00000000000000000,0.00000000000000000,0.00000000000000000,0.00000000000000000,0.00000000000000000,0.00000000000000000,0.00000000000000000
2.24018001556396484,-24.25947500095880471,55.39145748326367169,32.02587925741759989,0.67409374204053762,-0.00381063126403342,0.00225061260979776,0.73863254787074950,0.00000000000000000,0.00000000000000000,0.00000000000000000,0.00000000000000000,0.00000000000000000,0.00000000000000000,0.00000000000000000,0.00000000000000000,0.00000000000000000
2.25019192695617676,-24.30417036940531261,55.43361066987694130,32.03416375343799416,0.67412559577602404,-0.00372977052491080,0.00221497319884842,0.73860399662145126,0.00000000000000000,0.00000000000000000,0.00000000000000000,0.00000000000000000,0.00000000000000000,0.00000000000000000,0.00000000000000000,0.00000000000000000,0.00000000000000000
2.26020216941833496,-24.30929243399053874,55.39541293292228374,32.03387299325608240,0.67409909378934507,-0.00373267603533953,0.00228868859719877,0.73862794476414428,0.00000000000000000,0.00000000000000000,0.00000000000000000,0.00000000000000000,0.00000000000000000,0.00000000000000000,0.00000000000000000,0.00000000000000000,0.00000000000000000
2.27032184600830078,-24.29630324733992097,55.37755018880633173,32.03657286833331597,0.67405086896908106,-0.00377042073089553,0.00231927355739224,0.73867166653372085,0.00000000000000000,0.00000000000000000,0.00000000000000000,0.00000000000000000,0.00000000000000000,0.00000000000000000,0.00000000000000000,0.00000000000000000,0.00000000000000000
2.28021121025085449,-24.30128270940444324,55.38134510786127152,32.03818178025775154,0.67411846488565219,-0.00377292686142816,0.00220411997383850,0.73861031821810563,0.00000000000000000,0.00000000000000000,0.00000000000000000,0.00000000000000000,0.00000000000000000,0.00000000000000000,0.00000000000000000,0.00000000000000000,0.00000000000000000
2.29020738601684570,-24.29800444517052327,55.35595162650191270,32.02780904815627849,0.67402708033517322,-0.00382157070203831,0.00228817803592382,0.73869320750463574,0.00000000000000000,0.00000000000000000,0.00000000000000000,0.00000000000000000,0.00000000000000000,0.00000000000000000,0.00000000000000000,0.00000000000000000,0.00000000000000000
2.30015397071838379,-24.33690109577752381,55.36418688349444750,32.03995619672348738,0.67404555104589692,-0.00380000056085831,0.00228993321503552,0.73867645915978764,0.00000000000000000,0.00000000000000000,0.00000000000000000,0.00000000000000000,0.00000000000000000,0.00000000000000000,0.00000000000000000,0.00000000000000000,0.00000000000000000
2.31019663810729980,-24.29303159293619885,55.41819987827900462,32.06102452984396933,0.67405430031071845,-0.00367943125170005,0.00227579535014526,0.73866912943063767,0.00000000000000000,0.00000000000000000,0.00000000000000000,0.00000000000000000,0.00000000000000000,0.00000000000000000,0.00000000000000000,0.00000000000000000,0.00000000000000000
2.32014966011047363,-24.30970002963786314,55.38905874201397950,32.04636361890777607,0.67408132149070543,-0.00373526304342481,0.00224702387423069,0.73864427887248207,0.00000000000000000,0.00000000000000000,0.00000000000000000,0.00000000000000000,0.00000000000000000,0.00000000000000000,0.00000000000000000,0.00000000000000000,0.00000000000000000
2.33014178276062012,-24.36288725580635628,55.39543887650192033,32.04630266450666909,0.67400948493546164,-0.00372752680438891,0.00225927080677331,0.73870983170415327,0.00000000000000000,0.00000000000000000,0.00000000000000000,0.00000000000000000,0.00000000000000000,0.00000000000000000,0.00000000000000000,0.00000000000000000,0.00000000000000000
2.34027290344238281,-24.30091124764836152,55.38847395829723297,32.07222923626201805,0.67404350715858496,-0.00374683371569367,0.00220427949462494,0.73867885636883568,0.00000000000000000,0.00000000000000000,0.00000000000000000,0.00000000000000000,0.00000000000000000,0.00000000000000000,0.00000000000000000,0.00000000000000000,0.00000000000000000
2.35018253326416016,-24.31875349961977051,55.36990174205751458,32.05283485034661339,0.67407867856631842,-0.00381674157426333,0.00230614026684694,0.73864609205160681,0.00000000000000000,0.00000000000000000,0.00000000000000000,0.00000000000000000,0.00000000000000000,0.00000000000000000,0.00000000000000000,0.00000000000000000,0.00000000000000000
2.36017322540283203,-24.31043291295749853,55.41191394129807435,32.04667889970234995,0.67409505949636173,-0.00372279426148849,0.00228967219248777,0.73863167341154168,0.00000000000000000,0.00000000000000000,0.00000000000000000,0.00000000000000000,0.00000000000000000,0.00000000000000000,0.00000000000000000,0.00000000000000000,0.00000000000000000
2.37018394470214844,-24.22361231751386867,55.37592290967256758,32.05442932433086867,0.67412474891896623,-0.00388170036763769,0.00218907866431258,0.73860406391503020,0.00000000000000000,0.00000000000000000,0.00000000000000000,0.00000000000000000,0.00000000000000000,0.00000000000000000,0.00000000000000000,0.00000000000000000,0.00000000000000000
2.38017320632934570,-24.28779290441410765,55.33192329818515987,32.04003533240845059,0.67404932838455611,-0.00384696502405725,0.00231145290712409,0.73867270218269909,0.00000000000000000,0.00000000000000000,0.00000000000000000,0.00000000000000000,0.00000000000000000,0.00000000000000000,0.00000000000000000,0.00000000000000000,0.00000000000000000
2.39029741287231445,-24.30080516172894178,55.39121421052001182,32.03337702131478437,0.67405116216138161,-0.00373893688450643,0.00223141083788238,0.73867182966831557,0.00000000000000000,0.00000000000000000,0.00000000000000000,0.00000000000000000,0.00000000000000000,0.00000000000000000,0.00000000000000000,0.00000000000000000,0.00000000000000000
2.40018200874328613,-24.30845306555882601,55.38352236154063490,32.04932651627394335,0.67412690204974113,-0.00371394631103678,0.00223352830408766,0.73860282824189916,0.00000000000000000,0.00000000000000000,0.00000000000000000,0.00000000000000000,0.00000000000000000,0.00000000000000000,0.00000000000000000,0.00000000000000000,0.00000000000000000
2.41017627716064453,-24.29793800457347785,55.38870203055213892,32.04596717140382367,0.67405414091648119,-0.00377042233112905,0.00229593657234832,0.73866875370767193,0.00000000000000000,0.00000000000000000,0.00000000000000000,0.00000000000000000,0.00000000000000000,0.00000000000000000,0.00000000000000000,0.00000000000000000,0.00000000000000000
2.42014169692993164,-24.29079242385924076,55.35570367978607464,32.03897400539944584,0.67407679209456373,-0.00383173725822113,0.00223524926322425,0.73864795390620119,0.00000000000000000,0.00000000000000000,0.00000000000000000,0.00000000000000000,0.00000000000000000,0.00000000000000000,0.00000000000000000,0.00000000000000000,0.00000000000000000
2.43018245697021484,-24.29590272824117392,55.38536041649961561,32.04140368291944441,0.67412139510528901,-0.00374981980859920,0.00215795816809507,0.73860789782485181,0.00000000000000000,0.00000000000000000,0.00000000000000000,0.00000000000000000,0.00000000000000000,0.00000000000000000,0.00000000000000000,0.00000000000000000,0.00000000000000000
2.44017696380615234,-24.22311079717192683,55.40752280549352093,32.04897200112546329,0.67411602102840407,-0.00380890609088715,0.00212550652719684,0.73861259442905891,0.00000000000000000,0.00000000000000000,0.00000000000000000,0.00000000000000000,0.00000000000000000,0.00000000000000000,0.00000000000000000,0.00000000000000000,0.00000000000000000
2.45017266273498535,-24.29877682130012317,55.41512021890770967,32.07083998680943182,0.67406321052540341,-0.00375886794351340,0.00214905446106653,0.73866097818477761,0.00000000000000000,0.00000000000000000,0.00000000000000000,0.00000000000000000,0.00000000000000000,0.00000000000000000,0.00000000000000000,0.00000000000000000,0.00000000000000000
2.46017980575561523,-24.32623078514417969,55.38540303200418435,32.04646174691600180,0.67402631831052306,-0.00373927438514636,0.00230383686997807,0.73869427531794940,0.00000000000000000,0.00000000000000000,0.00000000000000000,0.00000000000000000,0.00000000000000000,0.00000000000000000,0.00000000000000000,0.00000000000000000,0.00000000000000000
2.47019886970520020,-24.29116116660074098,55.37820192333858671,32.02654463166233967,0.67409558087442023,-0.00376353810655572,0.00222620542379869,0.73863118512279802,0.00000000000000000,0.00000000000000000,0.00000000000000000,0.00000000000000000,0.00000000000000000,0.00000000000000000,0.00000000000000000,0.00000000000000000,0.00000000000000000
2.48016166687011719,-24.31312549190374739,55.41969509275492101,32.03217945756041019,0.67405488659187951,-0.00371441708913256,0.00217844464884501,0.73866871285184932,0.00000000000000000,0.00000000000000000,0.00000000000000000,0.00000000000000000,0.00000000000000000,0.00000000000000000,0.00000000000000000,0.00000000000000000,0.00000000000000000
2.49017906188964844,-24.27513899835200206,55.39399232236183934,32.04473142445543488,0.67404282843270902,-0.00378762233065938,0.00217377368835313,0.73867935808675844,0.00000000000000000,0.00000000000000000,0.00000000000000000,0.00000000000000000,0.00000000000000000,0.00000000000000000,0.00000000000000000,0.00000000000000000,0.00000000000000000
2.50013995170593262,-24.30608790308151512,55.39658057302984417,32.04065272126813113,0.67405389550882455,-0.00378887815313220,0.00226867377075321,0.73866896744823429,0.00000000000000000,0.00000000000000000,0.00000000000000000,0.00000000000000000,0.00000000000000000,0.00000000000000000,0.00000000000000000,0.00000000000000000,0.00000000000000000
2.51017522811889648,-24.30920378726465003,55.43953811365409479,32.04593859727184935,0.67411732989799233,-0.00373481528741132,0.00220775326078213,0.73861153694720316,0.00000000000000000,0.00000000000000000,0.00000000000000000,0.00000000000000000,0.00000000000000000,0.00000000000000000,0.00000000000000000,0.00000000000000000,0.00000000000000000
2.52013993263244629,-24.28868953663603136,55.34636487033603913,32.04678540982799717,0.67405117853848973,-0.00385069553883198,0.00225012831356886,0.73867118380055452,0.00000000000000000,0.00000000000000000,0.00000000000000000,0.00000000000000000,0.00000000000000000,0.00000000000000000,0.00000000000000000,0.00000000000000000,0.00000000000000000
2.53017497062683105,-24.26861070968574197,55.36769581456739076,32.02311607686507244,0.67409337672737424,-0.00387659354860396,0.00217784532207818,0.73863275615457125,0.00000000000000000,0.00000000000000000,0.00000000000000000,0.00000000000000000,0.00000000000000000,0.00000000000000000,0.00000000000000000,0.00000000000000000,0.00000000000000000
2.54031348228454590,-24.29817694451432430,55.38940453059419866,32.04589189445076158,0.67403196204257931,-0.00377646127661028,0.00221213267701386,0.73868921675781640,0.00000000000000000,0.00000000000000000,0.00000000000000000,0.00000000000000000,0.00000000000000000,0.00000000000000000,0.00000000000000000,0.00000000000000000,0.00000000000000000
2.55013108253479004,-24.31460334280293978,55.39310952092790785,32.05007918675980960,0.67407447391340003,-0.00380272234516107,0.00226898565290955,0.73865011651339052,0.00000000000000000,0.00000000000000000,0.00000000000000000,0.00000000000000000,0.00000000000000000,0.00000000000000000,0.00000000000000000,0.00000000000000000,0.00000000000000000
2.56015276908874512,-24.32376879020695881,55.40056371954150194,32.05169643374410526,0.67405719690407984,-0.00373090425060921,0.00224497567750622,0.73866632232659302,0.00000000000000000,0.00000000000000000,0.00000000000000000,0.00000000000000000,0.00000000000000000,0.00000000000000000,0.00000000000000000,0.00000000000000000,0.00000000000000000
2.57018184661865234,-24.33492343015013049,55.36092195045051767,32.06916161967002665,0.67402896831817727,-0.00380074661913992,0.00225264595496147,0.73869170144199658,0.00000000000000000,0.00000000000000000,0.00000000000000000,0.00000000000000000,0.00000000000000000,0.00000000000000000,0.00000000000000000,0.00000000000000000,0.00000000000000000
2.58018422126770020,-24.29633171784223578,55.37650714958272147,32.05704537797770826,0.67407722498337108,-0.00386099152779207,0.00220155811557543,0.73864750770919374,0.00000000000000000,0.00000000000000000,0.00000000000000000,0.00000000000000000,0.00000000000000000,0.00000000000000000,0.00000000000000000,0.00000000000000000,0.00000000000000000
2.59019327163696289,-24.30215083905785534,55.36499685090149114,32.05678484996279565,0.67401440488501774,-0.00381218384310865,0.00224047028024869,0.73870496786928752,0.00000000000000000,0.00000000000000000,0.00000000000000000,0.00000000000000000,0.00000000000000000,0.00000000000000000,0.00000000000000000,0.00000000000000000,0.00000000000000000
2.60009813308715820,-24.29974326042961863,55.39909800648401728,32.07827465130174005,0.67406481478337144,-0.00371650766429182,0.00224140582359951,0.73865945410708356,0.00000000000000000,0.00000000000000000,0.00000000000000000,0.00000000000000000,0.00000000000000000,0.00000000000000000,0.00000000000000000,0.00000000000000000,0.00000000000000000
2.61007761955261230,-24.32076413092560685,55.42968280874481479,32.07086474366240481,0.67404913295371938,-0.00358297210176483,0.00227120723653490,0.73867433304058006,0.00000000000000000,0.00000000000000000,0.00000000000000000,0.00000000000000000,0.00000000000000000,0.00000000000000000,0.00000000000000000,0.00000000000000000,0.00000000000000000
2.62006282806396484,-24.36794699183336732,55.38938630892236148,32.07033387356197096,0.67402245177285403,-0.00370261842148887,0.00224540295393037,0.73869816792009868,0.00000000000000000,0.00000000000000000,0.00000000000000000,0.00000000000000000,0.00000000000000000,0.00000000000000000,0.00000000000000000,0.00000000000000000,0.00000000000000000
2.63007116317749023,-24.35522565321548427,55.37407085292759490,32.02889533908862774,0.67404751716030231,-0.00372015012045962,0.00228610839496623,0.73867508337666288,0.00000000000000000,0.00000000000000000,0.00000000000000000,0.00000000000000000,0.00000000000000000,0.00000000000000000,0.00000000000000000,0.00000000000000000,0.00000000000000000
2.64015436172485352,-24.36203127262577439,55.43045372855908681,32.07268067499551734,0.67411430603568978,-0.00363496292472318,0.00219822637076122,0.73861482333038753,0.00000000000000000,0.00000000000000000,0.00000000000000000,0.00000000000000000,0.00000000000000000,0.00000000000000000,0.00000000000000000,0.00000000000000000,0.00000000000000000
2.65014529228210449,-24.35188889817004920,55.41922598788830356,32.08016640470098935,0.67411075862350978,-0.00363894688943950,0.00224191084364859,0.73861791002475774,0.00000000000000000,0.00000000000000000,0.00000000000000000,0.00000000000000000,0.00000000000000000,0.00000000000000000,0.00000000000000000,0.00000000000000000,0.00000000000000000
2.66011929512023926,-24.32425941810113912,55.40350232022825594,32.05460474770277557,0.67406509258931935,-0.00373680276836913,0.00227222404079887,0.73865900404417417,0.00000000000000000,0.00000000000000000,0.00000000000000000,0.00000000000000000,0.00000000000000000,0.00000000000000000,0.00000000000000000,0.00000000000000000,0.00000000000000000
2.67016434669494629,-24.33835458189760104,55.37240106527189454,32.04663464752784563,0.67403985301092639,-0.00381266184161871,0.00224782430669030,0.73868172269833254,0.00000000000000000,0.00000000000000000,0.00000000000000000,0.00000000000000000,0.00000000000000000,0.00000000000000000,0.00000000000000000,0.00000000000000000,0.00000000000000000
2.68018603324890137,-24.33967394594620615,55.39548185365430299,32.05777400658288201,0.67407358769100001,-0.00376092302671017,0.00220461459973702,0.73865133419620743,0.00000000000000000,0.00000000000000000,0.00000000000000000,0.00000000000000000,0.00000000000000000,0.00000000000000000,0.00000000000000000,0.00000000000000000,0.00000000000000000
2.69009494781494141,-24.31130591073664959,55.39072034942231681,32.04626971419941839,0.67402592087154711,-0.00374605784931340,0.00219192759399393,0.73869494413951109,0.00000000000000000,0.00000000000000000,0.00000000000000000,0.00000000000000000,0.00000000000000000,0.00000000000000000,0.00000000000000000,0.00000000000000000,0.00000000000000000
2.70015788078308105,-24.33089901097643448,55.40651754730362200,32.04248856008938873,0.67413749166512937,-0.00373177032809640,0.00224549937723125,0.73859303676260890,0.00000000000000000,0.00000000000000000,0.00000000000000000,0.00000000000000000,0.00000000000000000,0.00000000000000000,0.00000000000000000,0.00000000000000000,0.00000000000000000
2.71017289161682129,-24.30961688222274475,55.41858595240159246,32.05721479472608593,0.67410914175337799,-0.00373032709104488,0.00216284243037444,0.73861916559004837,0.00000000000000000,0.00000000000000000,0.00000000000000000,0.00000000000000000,0.00000000000000000,0.00000000000000000,0.00000000000000000,0.00000000000000000,0.00000000000000000
2.72013998031616211,-24.37143999985896770,55.39783759972480226,32.07025851351829004,0.67408174442013324,-0.00373651690542190,0.00220631293694285,0.73864400929280538,0.00000000000000000,0.00000000000000000,0.00000000000000000,0.00000000000000000,0.00000000000000000,0.00000000000000000,0.00000000000000000,0.00000000000000000,0.00000000000000000
2.73013305664062500,-24.31334845536661149,55.39913423026177952,32.07975685046717018,0.67410658000034174,-0.00375822686692590,0.00216807921378329,0.73862134681011127,0.00000000000000000,0.00000000000000000,0.00000000000000000,0.00000000000000000,0.00000000000000000,0.00000000000000000,0.00000000000000000,0.00000000000000000,0.00000000000000000
2.74017143249511719,-24.28383364651892506,55.41315918249144801,32.07347669944262236,0.67406229785776672,-0.00374571720307234,0.00213803073492905,0.73866190983014546,0.00000000000000000,0.00000000000000000,0.00000000000000000,0.00000000000000000,0.00000000000000000,0.00000000000000000,0.00000000000000000,0.00000000000000000,0.00000000000000000
2.75023698806762695,-24.33086247806604163,55.42344162332182123,32.05968054373223453,0.67408912072674265,-0.00373849201444620,0.00214656382636105,0.73863744371582185,0.00000000000000000,0.00000000000000000,0.00000000000000000,0.00000000000000000,0.00000000000000000,0.00000000000000000,0.00000000000000000,0.00000000000000000,0.00000000000000000
2.76017260551452637,-24.31630417666796617,55.41101275507526225,32.03757996519459539,0.67407226720309721,-0.00372127105350005,0.00229153250526680,0.73865247553108493,0.00000000000000000,0.00000000000000000,0.00000000000000000,0.00000000000000000,0.00000000000000000,0.00000000000000000,0.00000000000000000,0.00000000000000000,0.00000000000000000
2.77006864547729492,-24.30928580136217576,55.38282863376525711,32.07222343941771925,0.67405924153392638,-0.00380943465169141,0.00218131719369741,0.73866424643788120,0.00000000000000000,0.00000000000000000,0.00000000000000000,0.00000000000000000,0.00000000000000000,0.00000000000000000,0.00000000000000000,0.00000000000000000,0.00000000000000000
2.78011584281921387,-24.33366619892545302,55.39217080865073939,32.08608212906342061,0.67404093790053843,-0.00376357409437240,0.00216778119052973,0.73868122371487732,0.00000000000000000,0.00000000000000000,0.00000000000000000,0.00000000000000000,0.00000000000000000,0.00000000000000000,0.00000000000000000,0.00000000000000000,0.00000000000000000
2.79011845588684082,-24.31970955813496360,55.39330688024582372,32.06979502200029941,0.67403019882197257,-0.00376874090118037,0.00219513642306249,0.73869091577202683,0.00000000000000000,0.00000000000000000,0.00000000000000000,0.00000000000000000,0.00000000000000000,0.00000000000000000,0.00000000000000000,0.00000000000000000,0.00000000000000000
2.80013871192932129,-24.35391371819532580,55.40376684397561036,32.06258848208171486,0.67406102478902774,-0.00373216194410285,0.00226420676041658,0.73866276418629273,0.00000000000000000,0.00000000000000000,0.00000000000000000,0.00000000000000000,0.00000000000000000,0.00000000000000000,0.00000000000000000,0.00000000000000000,0.00000000000000000
2.81009840965270996,-24.34774260762052833,55.41835195859920304,32.08700696467384006,0.67401734405066371,-0.00374900988111233,0.00216901869861237,0.73870282265717990,0.00000000000000000,0.00000000000000000,0.00000000000000000,0.00000000000000000,0.00000000000000000,0.00000000000000000,0.00000000000000000,0.00000000000000000,0.00000000000000000
2.82016062736511230,-24.33947798373074534,55.37796273792772439,32.04569456511126901,0.67407408301875671,-0.00372246157463123,0.00220185466031243,0.73865108523463396,0.00000000000000000,0.00000000000000000,0.00000000000000000,0.00000000000000000,0.00000000000000000,0.00000000000000000,0.00000000000000000,0.00000000000000000,0.00000000000000000
2.83018207550048828,-24.33694009991883433,55.37344628284504466,32.05130611509763838,0.67403086067970785,-0.00375042509423814,0.00225374504458677,0.73869022857775701,0.00000000000000000,0.00000000000000000,0.00000000000000000,0.00000000000000000,0.00000000000000000,0.00000000000000000,0.00000000000000000,0.00000000000000000,0.00000000000000000
2.84012150764465332,-24.27189837851924992,55.38429088085094776,32.04074595451024976,0.67404392999413376,-0.00383599578455499,0.00216443019202748,0.73867813072836275,0.00000000000000000,0.00000000000000000,0.00000000000000000,0.00000000000000000,0.00000000000000000,0.00000000000000000,0.00000000000000000,0.00000000000000000,0.00000000000000000
2.85011744499206543,-24.30516420189415427,55.41674824386160481,32.09457403557318145,0.67407684905748533,-0.00378871164934728,0.00216460504818480,0.73864833426587739,0.00000000000000000,0.00000000000000000,0.00000000000000000,0.00000000000000000,0.00000000000000000,0.00000000000000000,0.00000000000000000,0.00000000000000000,0.00000000000000000
2.86021471023559570,-24.33523897632193211,55.42058837079093792,32.05460075276752008,0.67403372657642857,-0.00370909363535766,0.00223185929847884,0.73868788866879931,0.00000000000000000,0.00000000000000000,0.00000000000000000,0.00000000000000000,0.00000000000000000,0.00000000000000000,0.00000000000000000,0.00000000000000000,0.00000000000000000
2.87014389038085938,-24.32968463664914793,55.37423574738122767,32.03474622869974553,0.67401649646288508,-0.00377381744851283,0.00226012506655788,0.73870319657657246,0.00000000000000000,0.00000000000000000,0.00000000000000000,0.00000000000000000,0.00000000000000000,0.00000000000000000,0.00000000000000000,0.00000000000000000,0.00000000000000000
2.88018441200256348,-24.29195183225479937,55.38400860939739090,32.04300696109971369,0.67405862550702655,-0.00382196897391129,0.00221365155998780,0.73866464764432282,0.00000000000000000,0.00000000000000000,0.00000000000000000,0.00000000000000000,0.00000000000000000,0.00000000000000000,0.00000000000000000,0.00000000000000000,0.00000000000000000
2.89023208618164062,-24.30412917182047750,55.39954565613847848,32.03721249863263409,0.67399502978222614,-0.00378953292115687,0.00217592111304355,0.73872295526564347,0.00000000000000000,0.00000000000000000,0.00000000000000000,0.00000000000000000,0.00000000000000000,0.00000000000000000,0.00000000000000000,0.00000000000000000,0.00000000000000000
2.90022873878479004,-24.35425152779216873,55.39633648904498386,32.03320676209882123,0.67404820412016331,-0.00377214503476660,0.00232838550672341,0.73867406077724884,0.00000000000000000,0.00000000000000000,0.00000000000000000,0.00000000000000000,0.00000000000000000,0.00000000000000000,0.00000000000000000,0.00000000000000000,0.00000000000000000
2.91016149520874023,-24.33001970624374266,55.40433236559803021,32.05233102412068291,0.67405292299728803,-0.00370783302997031,0.00229062140358550,0.73867019841511095,0.00000000000000000,0.00000000000000000,0.00000000000000000,0.00000000000000000,0.00000000000000000,0.00000000000000000,0.00000000000000000,0.00000000000000000,0.00000000000000000
2.92017149925231934,-24.30344717050265047,55.38197861323461524,32.05014258398702509,0.67408077318054549,-0.00381154872983944,0.00222255576212001,0.73864446357532698,0.00000000000000000,0.00000000000000000,0.00000000000000000,0.00000000000000000,0.00000000000000000,0.00000000000000000,0.00000000000000000,0.00000000000000000,0.00000000000000000
2.93017721176147461,-24.26772429729810554,55.37667870462866659,32.04076529601188383,0.67405269985283334,-0.00386016181512740,0.00220192334350002,0.73866989143016837,0.00000000000000000,0.00000000000000000,0.00000000000000000,0.00000000000000000,0.00000000000000000,0.00000000000000000,0.00000000000000000,0.00000000000000000,0.00000000000000000
2.94029307365417480,-24.30815262476461669,55.40157953537556779,32.06053691154929908,0.67400609201994077,-0.00380882043835438,0.00213355140351263,0.73871288655693812,0.00000000000000000,0.00000000000000000,0.00000000000000000,0.00000000000000000,0.00000000000000000,0.00000000000000000,0.00000000000000000,0.00000000000000000,0.00000000000000000
2.95017647743225098,-24.32573312888710504,55.42916876784077118,32.05843146420594536,0.67410308627767801,-0.00376068377699866,0.00219229485727939,0.73862445137681254,0.00000000000000000,0.00000000000000000,0.00000000000000000,0.00000000000000000,0.00000000000000000,0.00000000000000000,0.00000000000000000,0.00000000000000000,0.00000000000000000
2.96012926101684570,-24.32138437890948524,55.40259449798377744,32.04094323856956095,0.67408939029847093,-0.00370207677330439,0.00224333227568525,0.73863709355467766,0.00000000000000000,0.00000000000000000,0.00000000000000000,0.00000000000000000,0.00000000000000000,0.00000000000000000,0.00000000000000000,0.00000000000000000,0.00000000000000000
2.97024726867675781,-24.31375215650236044,55.41348675610773711,32.04032148822159343,0.67409856408905700,-0.00371383775142774,0.00215771409833967,0.73862891736791436,0.00000000000000000,0.00000000000000000,0.00000000000000000,0.00000000000000000,0.00000000000000000,0.00000000000000000,0.00000000000000000,0.00000000000000000,0.00000000000000000
2.98010969161987305,-24.28847339186992471,55.37247791236612926,32.03753925005330672,0.67408406452060565,-0.00378829898021988,0.00224443377209092,0.73864151336575934,0.00000000000000000,0.00000000000000000,0.00000000000000000,0.00000000000000000,0.00000000000000000,0.00000000000000000,0.00000000000000000,0.00000000000000000,0.00000000000000000
2.99027967453002930,-24.29229443771972186,55.39592565588219486,32.06033770862810428,0.67400629208636675,-0.00382822669871371,0.00216820914374111,0.73871250278944034,0.00000000000000000,0.00000000000000000,0.00000000000000000,0.00000000000000000,0.00000000000000000,0.00000000000000000,0.00000000000000000,0.00000000000000000,0.00000000000000000
3.00016856193542480,-24.28824137324377830,55.38717139632316133,32.05473726080093400,0.67413124522767176,-0.00383686846583974,0.00223020797339214,0.73859824588240131,0.00000000000000000,0.00000000000000000,0.00000000000000000,0.00000000000000000,0.00000000000000000,0.00000000000000000,0.00000000000000000,0.00000000000000000,0.00000000000000000
3.01017928123474121,-24.30326892447857290,55.41254150059535277,32.00380850732343418,0.67408996623739670,-0.00373590081601343,0.00230995389482961,0.73863619230048705,0.00000000000000000,0.00000000000000000,0.00000000000000000,0.00000000000000000,0.00000000000000000,0.00000000000000000,0.00000000000000000,0.00000000000000000,0.00000000000000000
3.02018308639526367,-24.27381000823528368,55.40620002209922035,32.05080760977259757,0.67409427566561431,-0.00380728043347822,0.00210571617339793,0.73863250543822467,0.00000000000000000,0.00000000000000000,0.00000000000000000,0.00000000000000000,0.00000000000000000,0.00000000000000000,0.00000000000000000,0.00000000000000000,0.00000000000000000
3.03018283843994141,-24.31005887936105481,55.37582972290376659,32.03402169729405102,0.67405822029212270,-0.00383666740208694,0.00218108569708723,0.73866503809578254,0.00000000000000000,0.00000000000000000,0.00000000000000000,0.00000000000000000,0.00000000000000000,0.00000000000000000,0.00000000000000000,0.00000000000000000,0.00000000000000000
3.04032516479492188,-24.29776841394608411,55.39448895330951927,32.04491801549601604,0.67403962693577502,-0.00380193497571838,0.00219683742808629,0.73868213767224444,0.00000000000000000,0.00000000000000000,0.00000000000000000,0.00000000000000000,0.00000000000000000,0.00000000000000000,0.00000000000000000,0.00000000000000000,0.00000000000000000
3.05010294914245605,-24.29855275656505498,55.42646719370389263,32.06257581276154411,0.67410235839741905,-0.00377901348398189,0.00214056830321069,0.73862517383816884,0.00000000000000000,0.00000000000000000,0.00000000000000000,0.00000000000000000,0.00000000000000000,0.00000000000000000,0.00000000000000000,0.00000000000000000,0.00000000000000000
3.06040191650390625,-24.28925111221233735,55.40275105409383372,32.05152833216191510,0.67408769770479504,-0.00374851167240919,0.00220979608597826,0.73863850513261842,0.00000000000000000,0.00000000000000000,0.00000000000000000,0.00000000000000000,0.00000000000000000,0.00000000000000000,0.00000000000000000,0.00000000000000000,0.00000000000000000
3.07012081146240234,-24.26870932208982268,55.38044954106410245,32.04400245289853899,0.67404894729382203,-0.00389594035635686,0.00217387983141534,0.73867321093113214,0.00000000000000000,0.00000000000000000,0.00000000000000000,0.00000000000000000,0.00000000000000000,0.00000000000000000,0.00000000000000000,0.00000000000000000,0.00000000000000000
3.08013916015625000,-24.30354191559747434,55.38223921933651894,32.04404614858331257,0.67408416704366370,-0.00384187230613799,0.00219113862273408,0.73864130311658660,0.00000000000000000,0.00000000000000000,0.00000000000000000,0.00000000000000000,0.00000000000000000,0.00000000000000000,0.00000000000000000,0.00000000000000000,0.00000000000000000
3.09008646011352539,-24.29266859828507563,55.39104236596529063,32.02126885079007224,0.67407844882172396,-0.00380948925655108,0.00219768658979578,0.73864666979507565,0.00000000000000000,0.00000000000000000,0.00000000000000000,0.00000000000000000,0.00000000000000000,0.00000000000000000,0.00000000000000000,0.00000000000000000,0.00000000000000000
3.10006213188171387,-24.32665746156465048,55.42604929055627139,32.04294146479048067,0.67406987833036447,-0.00374743318214188,0.00219378435153933,0.73865482004956284,0.00000000000000000,0.00000000000000000,0.00000000000000000,0.00000000000000000,0.00000000000000000,0.00000000000000000,0.00000000000000000,0.00000000000000000,0.00000000000000000
3.11006021499633789,-24.28574740283421463,55.40203422370544217,32.04084977491536534,0.67403744089159690,-0.00381550075513716,0.00219810551130692,0.73868405868981335,0.00000000000000000,0.00000000000000000,0.00000000000000000,0.00000000000000000,0.00000000000000000,0.00000000000000000,0.00000000000000000,0.00000000000000000,0.00000000000000000
3.12014055252075195,-24.30358480369882912,55.38299022246277303,32.06554346265354383,0.67405350235862871,-0.00384187371566785,0.00215240314367415,0.73866940042560758,0.00000000000000000,0.00000000000000000,0.00000000000000000,0.00000000000000000,0.00000000000000000,0.00000000000000000,0.00000000000000000,0.00000000000000000,0.00000000000000000
3.13014197349548340,-24.30599305977471047,55.39248613160942369,32.05118500838437257,0.67406191997592457,-0.00378606837671748,0.00216970162496421,0.73866195659413503,0.00000000000000000,0.00000000000000000,0.00000000000000000,0.00000000000000000,0.00000000000000000,0.00000000000000000,0.00000000000000000,0.00000000000000000,0.00000000000000000
3.14008593559265137,-24.29436784007373618,55.38708106243026918,32.02627355864317593,0.67398470761830509,-0.00381415935038069,0.00221252193105873,0.73873213740287647,0.00000000000000000,0.00000000000000000,0.00000000000000000,0.00000000000000000,0.00000000000000000,0.00000000000000000,0.00000000000000000,0.00000000000000000,0.00000000000000000
3.15021061897277832,-24.31157395463092641,55.42785804471125033,32.06455461902297799,0.67407823794513444,-0.00373428004090473,0.00214703067825917,0.73864739527099521,0.00000000000000000,0.00000000000000000,0.00000000000000000,0.00000000000000000,0.00000000000000000,0.00000000000000000,0.00000000000000000,0.00000000000000000,0.00000000000000000
3.16014146804809570,-24.33704482083432197,55.41442116456391176,32.03756067791587014,0.67404148813210463,-0.00366340815260515,0.00228247505219186,0.73868087969366147,0.00000000000000000,0.00000000000000000,0.00000000000000000,0.00000000000000000,0.00000000000000000,0.00000000000000000,0.00000000000000000,0.00000000000000000,0.00000000000000000
3.17019248008728027,-24.29588372203177826,55.34802310749275733,32.03026981116018135,0.67403055881500340,-0.00385183917161391,0.00229679111449787,0.73868984957768746,0.00000000000000000,0.00000000000000000,0.00000000000000000,0.00000000000000000,0.00000000000000000,0.00000000000000000,0.00000000000000000,0.00000000000000000,0.00000000000000000
3.18014764785766602,-24.28665648462823512,55.40020528624830831,32.05221661467235350,0.67405802685846805,-0.00383141311574818,0.00217279354947586,0.73866526632121854,0.00000000000000000,0.00000000000000000,0.00000000000000000,0.00000000000000000,0.00000000000000000,0.00000000000000000,0.00000000000000000,0.00000000000000000,0.00000000000000000
3.19027805328369141,-24.28813414997188147,55.39996953724881479,32.07980433842622148,0.67400674252723647,-0.00386971591865817,0.00204030887721525,0.73871223995966007,0.00000000000000000,0.00000000000000000,0.00000000000000000,0.00000000000000000,0.00000000000000000,0.00000000000000000,0.00000000000000000,0.00000000000000000,0.00000000000000000
3.20008802413940430,-24.32035973309434596,55.40196442667598831,32.07392015360203885,0.67403450116421249,-0.00383179495629136,0.00213316772047715,0.73868684717084299,0.00000000000000000,0.00000000000000000,0.00000000000000000,0.00000000000000000,0.00000000000000000,0.00000000000000000,0.00000000000000000,0.00000000000000000,0.00000000000000000
3.21003890037536621,-24.31859072144279210,55.41092594549007089,32.04750629941903384,0.67402007955461818,-0.00376762661589284,0.00216758252642676,0.73870023618031988,0.00000000000000000,0.00000000000000000,0.00000000000000000,0.00000000000000000,0.00000000000000000,0.00000000000000000,0.00000000000000000,0.00000000000000000,0.00000000000000000
3.22006058692932129,-24.28259879650984132,55.39422988490824906,32.08913795397230473,0.67405051794197635,-0.00383792440821460,0.00205460816554295,0.73867242278541601,0.00000000000000000,0.00000000000000000,0.00000000000000000,0.00000000000000000,0.00000000000000000,0.00000000000000000,0.00000000000000000,0.00000000000000000,0.00000000000000000
3.23006176948547363,-24.28659578669756414,55.35653025553030915,32.06262716264993884,0.67404953566715087,-0.00390501910411696,0.00214042301054417,0.73867272379723836,0.00000000000000000,0.00000000000000000,0.00000000000000000,0.00000000000000000,0.00000000000000000,0.00000000000000000,0.00000000000000000,0.00000000000000000,0.00000000000000000
3.24006485939025879,-24.27648724107077172,55.39768809284351647,32.04604532665437233,0.67406444556943579,-0.00384957336128911,0.00210629616477463,0.73865950716183937,0.00000000000000000,0.00000000000000000,0.00000000000000000,0.00000000000000000,0.00000000000000000,0.00000000000000000,0.00000000000000000,0.00000000000000000,0.00000000000000000
3.25007796287536621,-24.30568656558947893,55.39503615650985324,32.04733853623347528,0.67414009459533020,-0.00370581980859302,0.00224094354941039,0.73859080547387912,0.00000000000000000,0.00000000000000000,0.00000000000000000,0.00000000000000000,0.00000000000000000,0.00000000000000000,0.00000000000000000,0.00000000000000000,0.00000000000000000
3.26010966300964355,-24.33407145917287906,55.41212367944412875,32.02335216645989391,0.67410609159845158,-0.00368592194484929,0.00227828844709432,0.73862182519272190,0.00000000000000000,0.00000000000000000,0.00000000000000000,0.00000000000000000,0.00000000000000000,0.00000000000000000,0.00000000000000000,0.00000000000000000,0.00000000000000000
3.27010941505432129,-24.31782661942582990,55.37661511449852725,32.03883426241685584,0.67405723099608805,-0.00385657258479733,0.00215159320001570,0.73866592370061734,0.00000000000000000,0.00000000000000000,0.00000000000000000,0.00000000000000000,0.00000000000000000,0.00000000000000000,0.00000000000000000,0.00000000000000000,0.00000000000000000
3.28011631965637207,-24.29806198559080599,55.36485424196595062,32.03361524332628107,0.67404966427869495,-0.00387100961671132,0.00216738364647931,0.73867270683195996,0.00000000000000000,0.00000000000000000,0.00000000000000000,0.00000000000000000,0.00000000000000000,0.00000000000000000,0.00000000000000000,0.00000000000000000,0.00000000000000000
3.29009318351745605,-24.25944054337132272,55.37725723864655691,32.04040274331801186,0.67400017136149282,-0.00384836532021171,0.00217185339509901,0.73871797199057720,0.00000000000000000,0.00000000000000000,0.00000000000000000,0.00000000000000000,0.00000000000000000,0.00000000000000000,0.00000000000000000,0.00000000000000000,0.00000000000000000
3.30006027221679688,-24.30123622053850951,55.42013841757272985,32.06497522798863287,0.67406638726298507,-0.00379836348184835,0.00207814147504910,0.73865808011900635,0.00000000000000000,0.00000000000000000,0.00000000000000000,0.00000000000000000,0.00000000000000000,0.00000000000000000,0.00000000000000000,0.00000000000000000,0.00000000000000000
3.31007933616638184,-24.28409111481828475,55.39433288575880709,32.06582736432448399,0.67402810501963528,-0.00379453861453229,0.00216885508328195,0.73869277185306892,0.00000000000000000,0.00000000000000000,0.00000000000000000,0.00000000000000000,0.00000000000000000,0.00000000000000000,0.00000000000000000,0.00000000000000000,0.00000000000000000
3.32011604309082031,-24.30765140340888664,55.38933536198362617,32.04343737712708418,0.67407111773220796,-0.00381178676816490,0.00215500730613502,0.73865347387282732,0.00000000000000000,0.00000000000000000,0.00000000000000000,0.00000000000000000,0.00000000000000000,0.00000000000000000,0.00000000000000000,0.00000000000000000,0.00000000000000000
3.33025598526000977,-24.32419127630379307,55.41827689940576107,32.05174530416378076,0.67399635339386155,-0.00383451336576587,0.00207572380036844,0.73872180385428499,0.00000000000000000,0.00000000000000000,0.00000000000000000,0.00000000000000000,0.00000000000000000,0.00000000000000000,0.00000000000000000,0.00000000000000000,0.00000000000000000
3.34006309509277344,-24.25923162628623686,55.39193748957314511,32.05768205750771216,0.67402392884085549,-0.00386965312092532,0.00211593842176475,0.73869634623386116,0.00000000000000000,0.00000000000000000,0.00000000000000000,0.00000000000000000,0.00000000000000000,0.00000000000000000,0.00000000000000000,0.00000000000000000,0.00000000000000000
3.35021591186523438,-24.32813493682559169,55.39777969263021618,32.06043850471776580,0.67404354106357478,-0.00377492265174504,0.00220176155421032,0.73867868992919306,0.00000000000000000,0.00000000000000000,0.00000000000000000,0.00000000000000000,0.00000000000000000,0.00000000000000000,0.00000000000000000,0.00000000000000000,0.00000000000000000
3.36007213592529297,-24.31173702087329858,55.40896126878073602,32.04958774912886810,0.67403271252861441,-0.00378644101593686,0.00222231697041442,0.73868845030434449,0.00000000000000000,0.00000000000000000,0.00000000000000000,0.00000000000000000,0.00000000000000000,0.00000000000000000,0.00000000000000000,0.00000000000000000,0.00000000000000000
3.37007498741149902,-24.31879846817567525,55.40911082122570264,32.03327171079551050,0.67410205128295975,-0.00375166347689455,0.00211464068789714,0.73862566823257825,0.00000000000000000,0.00000000000000000,0.00000000000000000,0.00000000000000000,0.00000000000000000,0.00000000000000000,0.00000000000000000,0.00000000000000000,0.00000000000000000
3.38007616996765137,-24.30723134344659186,55.39011336512314898,32.02348323505980687,0.67409669534837102,-0.00381829207412591,0.00213097602903290,0.73863016788322799,0.00000000000000000,0.00000000000000000,0.00000000000000000,0.00000000000000000,0.00000000000000000,0.00000000000000000,0.00000000000000000,0.00000000000000000,0.00000000000000000
3.39012455940246582,-24.26811877151142838,55.38660136381466259,32.03778802924662017,0.67403629047088076,-0.00386344425818675,0.00211341007746566,0.73868510640499752,0.00000000000000000,0.00000000000000000,0.00000000000000000,0.00000000000000000,0.00000000000000000,0.00000000000000000,0.00000000000000000,0.00000000000000000,0.00000000000000000
3.40012478828430176,-24.28857312448377215,55.39909184695041944,32.08018296687948379,0.67404927081111532,-0.00385086649771479,0.00210197519219326,0.73867336018467034,0.00000000000000000,0.00000000000000000,0.00000000000000000,0.00000000000000000,0.00000000000000000,0.00000000000000000,0.00000000000000000,0.00000000000000000,0.00000000000000000
3.41010713577270508,-24.28659805625484935,55.43122110490642740,32.08008843907847307,0.67404870909100878,-0.00379958495574851,0.00204927545052651,0.73867428640574473,0.00000000000000000,0.00000000000000000,0.00000000000000000,0.00000000000000000,0.00000000000000000,0.00000000000000000,0.00000000000000000,0.00000000000000000,0.00000000000000000
3.42011761665344238,-24.28324850168291960,55.36687642332399406,32.05504696154800826,0.67403301923645642,-0.00389177129571679,0.00217960329075693,0.73868775028740230,0.00000000000000000,0.00000000000000000,0.00000000000000000,0.00000000000000000,0.00000000000000000,0.00000000000000000,0.00000000000000000,0.00000000000000000,0.00000000000000000
3.43012118339538574,-24.23202962636531765,55.39360447370061280,32.03501542474546682,0.67405267667211299,-0.00389625572207839,0.00209516422795344,0.73867003360727057,0.00000000000000000,0.00000000000000000,0.00000000000000000,0.00000000000000000,0.00000000000000000,0.00000000000000000,0.00000000000000000,0.00000000000000000,0.00000000000000000
3.44010376930236816,-24.28528007687503987,55.39444816797407611,32.05599798402918310,0.67404916948389149,-0.00379904857750990,0.00211600244300596,0.73867368091847152,0.00000000000000000,0.00000000000000000,0.00000000000000000,0.00000000000000000,0.00000000000000000,0.00000000000000000,0.00000000000000000,0.00000000000000000,0.00000000000000000
3.45011162757873535,-24.33216581253111599,55.41889664548072147,32.05219440389308971,0.67411541167056732,-0.00373782263460428,0.00213783474111123,0.73861347814184508,0.00000000000000000,0.00000000000000000,0.00000000000000000,0.00000000000000000,0.00000000000000000,0.00000000000000000,0.00000000000000000,0.00000000000000000,0.00000000000000000
3.46010994911193848,-24.30947224468105716,55.39857168234063778,32.03767492009591678,0.67402001754041896,-0.00378848802567942,0.00225994606697065,0.73869990927105633,0.00000000000000000,0.00000000000000000,0.00000000000000000,0.00000000000000000,0.00000000000000000,0.00000000000000000,0.00000000000000000,0.00000000000000000,0.00000000000000000
