t,x,y,z,q0,q1,q2,q3,wx,wy,wz,ax,ay,az,dutyR,dutyL,Vbatt
0.00000000000000000,-56.18485823395153034,24.28945554580536736,31.52804135273894204,0.10438609749014452,-0.64908081232952131,0.60209034785033722,0.45308371714496731,0.00000000000000000,0.00000000000000000,0.00000000000000000,0.00000000000000000,0.00000000000000000,0.00000000000000000,0.00000000000000000,0.00000000000000000,0.00000000000000000
0.01007461547851562,-56.18485823395153034,24.28945554580536736,31.52804135273894204,0.69194296070080497,-0.00305025216945323,0.00402280708289354,0.72193452066062069,0.00000000000000000,0.00000000000000000,0.00000000000000000,0.00000000000000000,0.00000000000000000,0.00000000000000000,0.00000000000000000,0.00000000000000000,0.00000000000000000
0.02005338668823242,-56.14122517412386060,24.31010485070395433,31.51755795189754750,0.69195612012827101,-0.00302088027397714,0.00396445621567689,0.72192235398712679,0.00000000000000000,0.00000000000000000,0.00000000000000000,0.00000000000000000,0.00000000000000000,0.00000000000000000,0.00000000000000000,0.00000000000000000,0.00000000000000000
0.03006172180175781,-56.13946836793366657,24.31598549956991562,31.52536682021421299,0.69196481908350604,-0.00304640936243807,0.00396232382437127,0.72191392044386993,0.00000000000000000,0.00000000000000000,0.00000000000000000,0.00000000000000000,0.00000000000000000,0.00000000000000000,0.00000000000000000,0.00000000000000000,0.00000000000000000
0.04004383087158203,-56.16534180282513944,24.31009926352480122,31.51420830117698912,0.69191872693517675,-0.00303842435924982,0.00402708730997377,0.72195777290754026,0.00000000000000000,0.00000000000000000,0.00000000000000000,0.00000000000000000,0.00000000000000000,0.00000000000000000,0.00000000000000000,0.00000000000000000,0.00000000000000000
0.05014300346374512,-56.09606725346654343,24.29502945522003188,31.52379011862369751,0.69192461910712399,-0.00309712021323603,0.00399076403520796,0.72195207813418016,0.00000000000000000,0.00000000000000000,0.00000000000000000,0.00000000000000000,0.00000000000000000,0.00000000000000000,0.00000000000000000,0.00000000000000000,0.00000000000000000
0.06002449989318848,-56.15710193160015962,24.31387878598644292,31.52346570458874808,0.69191650776503255,-0.00307707384691665,0.00394678214852542,0.72196017951785574,0.00000000000000000,0.00000000000000000,0.00000000000000000,0.00000000000000000,0.00000000000000000,0.00000000000000000,0.00000000000000000,0.00000000000000000,0.00000000000000000
0.07004094123840332,-56.11811377871094919,24.30045152394087538,31.51467480807049526,0.69194652107455068,-0.00302973691523725,0.00404553893275912,0.72193106754162795,0.00000000000000000,0.00000000000000000,0.00000000000000000,0.00000000000000000,0.00000000000000000,0.00000000000000000,0.00000000000000000,0.00000000000000000,0.00000000000000000
0.08002829551696777,-56.12019586530755078,24.33176472367388499,31.52603417399326702,0.69196747356958410,-0.00302454897960678,0.00402195600476381,0.72191113822623110,0.00000000000000000,0.00000000000000000,0.00000000000000000,0.00000000000000000,0.00000000000000000,0.00000000000000000,0.00000000000000000,0.00000000000000000,0.00000000000000000
0.09006142616271973,-56.14989224466777529,24.30177870936769224,31.50538931964934974,0.69198791073017252,-0.00302909657471333,0.00399846921097106,0.72189165961465507,0.00000000000000000,0.00000000000000000,0.00000000000000000,0.00000000000000000,0.00000000000000000,0.00000000000000000,0.00000000000000000,0.00000000000000000,0.00000000000000000
0.10002517700195312,-56.15219841866263550,24.29571195579587695,31.51396779964010264,0.69193836473929582,-0.00302239191127322,0.00400324617623283,0.72193915156964272,0.00000000000000000,0.00000000000000000,0.00000000000000000,0.00000000000000000,0.00000000000000000,0.00000000000000000,0.00000000000000000,0.00000000000000000,0.00000000000000000
0.11003589630126953,-56.15049298202276873,24.31336713241968184,31.50786493915983399,0.69200277051336945,-0.00296165473842739,0.00406608755337956,0.72187731723267201,0.28222222222222221,0.00111111111111111,0.00111111111111111,-0.19000000000000000,1.87000000000000011,9.59999999999999964,0.00000000000000000,0.00000000000000000,11.68875926399999976
0.11999177932739258,-56.15134322813442935,24.30614512636444502,31.50627655935889138,0.69193094950196321,-0.00301351289615477,0.00406571707624548,0.72194594659572175,0.28222222222222221,0.00111111111111111,0.00111111111111111,-0.19000000000000000,1.87000000000000011,9.59999999999999964,0.00000000000000000,0.00000000000000000,11.68875926399999976
0.13001060485839844,-56.17057684664724349,24.29270229727286434,31.50797266945160047,0.69192109094734400,-0.00296892192907329,0.00415109796477062,0.72195509402628599,0.28222222222222221,0.00111111111111111,0.00111111111111111,-0.19000000000000000,1.87000000000000011,9.59999999999999964,0.00000000000000000,0.00000000000000000,11.68875926399999976
0.14003229141235352,-56.09248889762691448,24.30973915977554256,31.55324647564249219,0.69200390933373013,-0.00300852537680921,0.00390507035700154,0.72187692071945264,-0.00111111111111111,-0.00000000000000000,-0.00111111111111111,-0.19000000000000000,1.87000000000000011,9.63000000000000078,0.00000000000000000,0.00000000000000000,11.69863987200000111
0.15003967285156250,-56.13215063795095006,24.30121898733288788,31.51644792401214090,0.69189894717637590,-0.00305983872407542,0.00397189099955039,0.72197694448305838,-0.00111111111111111,-0.00000000000000000,-0.00111111111111111,-0.19000000000000000,1.87000000000000011,9.63000000000000078,0.00000000000000000,0.00000000000000000,11.69863987200000111
0.16000986099243164,-56.14151987898918605,24.30094530004013720,31.54485765739765313,0.69200455427294372,-0.00299908350223617,0.00400122158861351,0.72187581521301158,-0.00111111111111111,-0.00000000000000000,-0.00111111111111111,-0.19000000000000000,1.87000000000000011,9.63000000000000078,0.00000000000000000,0.00000000000000000,11.69863987200000111
0.17002320289611816,-56.17763636386501247,24.30312423034565583,31.52805695320257584,0.69197169519086921,-0.00291515556365315,0.00409648195496205,0.72190712266766488,-0.00111111111111111,-0.00000000000000000,-0.00111111111111111,-0.19000000000000000,1.87000000000000011,9.63000000000000078,0.00000000000000000,0.00000000000000000,11.69863987200000111
0.18001198768615723,-56.15658044571453189,24.28683869383988636,31.51265532728231733,0.69195224385479615,-0.00295589145318497,0.00410850665880850,0.72192553293470962,-0.00111111111111111,-0.00000000000000000,-0.00111111111111111,-0.19000000000000000,1.87000000000000011,9.63000000000000078,0.00000000000000000,0.00000000000000000,11.69863987200000111
0.19006919860839844,-56.18420870501368114,24.25975147570395052,31.50049321227292864,0.69200098844250713,-0.00291653175776063,0.00419594627059127,0.72187846613678230,-0.00111111111111111,-0.00000000000000000,-0.00111111111111111,-0.19000000000000000,1.87000000000000011,9.63000000000000078,0.00000000000000000,0.00000000000000000,11.69863987200000111
0.20002079010009766,-56.10815420538924769,24.31511579109606558,31.53403465657288862,0.69197531413286784,-0.00301689336839689,0.00395465977142115,0.72190402662072373,-0.28333333333333333,-0.00111111111111111,-0.00000000000000000,-0.19000000000000000,1.85000000000000009,9.60999999999999943,0.00000000000000000,0.00000000000000000,11.67887865600000019
0.21002149581909180,-56.16016997086499174,24.31671638715444672,31.54091887027986374,0.69197142257887556,-0.00292659250477266,0.00403254370681581,0.72190769768837548,-0.28333333333333333,-0.00111111111111111,-0.00000000000000000,-0.19000000000000000,1.85000000000000009,9.60999999999999943,0.00000000000000000,0.00000000000000000,11.67887865600000019
0.22015428543090820,-56.13572719727847726,24.29427288875867319,31.52642303639111176,0.69197861513971393,-0.00293904887980535,0.00412473110419637,0.72190023187025210,-0.28333333333333333,-0.00111111111111111,-0.00000000000000000,-0.19000000000000000,1.85000000000000009,9.60999999999999943,0.00000000000000000,0.00000000000000000,11.67887865600000019
0.23007559776306152,-56.13934383912759785,24.31471394592298907,31.51310523056692148,0.69201251087341031,-0.00294379471940184,0.00407407865552457,0.72186800784522709,-0.28333333333333333,-0.00111111111111111,-0.00000000000000000,-0.19000000000000000,1.85000000000000009,9.60999999999999943,0.00000000000000000,0.00000000000000000,11.67887865600000019
0.24004268646240234,-56.17853740437087851,24.28994219593043979,31.48977726629648188,0.69205577371468296,-0.00294094888554738,0.00411792514595921,0.72182629460301340,-0.28333333333333333,-0.00111111111111111,-0.00000000000000000,-0.19000000000000000,1.85000000000000009,9.60999999999999943,0.00000000000000000,0.00000000000000000,11.67887865600000019
0.25006246566772461,-56.14588141041716796,24.30501966965150018,31.50832550430336099,0.69195158987611505,-0.00302454224211675,0.00402389863113943,0.72192635195838895,0.00222222222222222,0.00333333333333333,-0.00000000000000000,-0.19000000000000000,1.86000000000000010,9.58999999999999986,0.00000000000000000,0.00000000000000000,11.69863987200000111
0.26003003120422363,-56.14558410415376244,24.32986449344720015,31.50220304179634923,0.69204699972346317,-0.00296245690817062,0.00394577187310189,0.72183558024466066,0.00222222222222222,0.00333333333333333,-0.00000000000000000,-0.19000000000000000,1.86000000000000010,9.58999999999999986,0.00000000000000000,0.00000000000000000,11.69863987200000111
0.26999068260192871,-56.14025476000083614,24.29256850450863681,31.50091109126109856,0.69198402276923276,-0.00298615703889989,0.00409318452484778,0.72189503457129722,0.00222222222222222,0.00333333333333333,-0.00000000000000000,-0.19000000000000000,1.86000000000000010,9.58999999999999986,0.00000000000000000,0.00000000000000000,11.69863987200000111
0.28000330924987793,-56.14582667655155745,24.28988229033049606,31.49484470473527153,0.69196084038557182,-0.00292493131414890,0.00418346836670367,0.72191698881666821,0.00222222222222222,0.00333333333333333,-0.00000000000000000,-0.19000000000000000,1.86000000000000010,9.58999999999999986,0.00000000000000000,0.00000000000000000,11.69863987200000111
0.29003095626831055,-56.15152591019386108,24.30892378947852350,31.50388223744741722,0.69197604148345238,-0.00298075226286592,0.00403666826490491,0.72190302564690612,0.00111111111111111,-0.00222222222222222,-0.00111111111111111,-0.17999999999999999,1.86000000000000010,9.61999999999999922,0.00000000000000000,0.00000000000000000,11.69863987200000111
0.30002379417419434,-56.18103437996967386,24.31823920433811637,31.51815447469356357,0.69193578621836971,-0.00289247990432051,0.00408690364776051,0.72194168637705336,0.00111111111111111,-0.00222222222222222,-0.00111111111111111,-0.17999999999999999,1.86000000000000010,9.61999999999999922,0.00000000000000000,0.00000000000000000,11.69863987200000111
0.31002855300903320,-56.21188985496297619,24.30691250189282826,31.51123064242991134,0.69198117714912044,-0.00289423953608272,0.00410777002311506,0.72189805379586824,0.00111111111111111,-0.00222222222222222,-0.00111111111111111,-0.17999999999999999,1.86000000000000010,9.61999999999999922,0.00000000000000000,0.00000000000000000,11.69863987200000111
0.32005238533020020,-56.17866754607674551,24.30051466109796010,31.51888057260309850,0.69190524243105800,-0.00293110567278003,0.00411893010318273,0.72197062165351267,0.00111111111111111,-0.00222222222222222,-0.00111111111111111,-0.17999999999999999,1.86000000000000010,9.61999999999999922,0.00000000000000000,0.00000000000000000,11.69863987200000111
0.33002734184265137,-56.15183103376696039,24.30867006232054095,31.53730378109150578,0.69197704242352631,-0.00291023319973939,0.00407257221227631,0.72190215227348375,0.00111111111111111,-0.00222222222222222,-0.00111111111111111,-0.17999999999999999,1.86000000000000010,9.61999999999999922,0.00000000000000000,0.00000000000000000,11.69863987200000111
0.34006619453430176,-56.10582715737246673,24.31153190231269434,31.53658430948024716,0.69195621673115237,-0.00304337038050381,0.00394677634514290,0.72192226380706614,0.00111111111111111,-0.00222222222222222,-0.00111111111111111,-0.17999999999999999,1.86000000000000010,9.61999999999999922,0.00000000000000000,0.00000000000000000,11.69863987200000111
0.35004901885986328,-56.11985040982872164,24.32095568272566410,31.53412612208317967,0.69200748384826394,-0.00302357187585774,0.00394958168905804,0.72187318908211828,-0.00222222222222222,-0.00111111111111111,-0.28333333333333333,-0.17999999999999999,1.85000000000000009,9.58999999999999986,0.00000000000000000,0.00000000000000000,11.68217219200000123
0.36002850532531738,-56.12784595191232029,24.31164647785754696,31.54156268820310061,0.69199562786280566,-0.00302476766258090,0.00400143595809538,0.72188426379137949,-0.00222222222222222,-0.00111111111111111,-0.28333333333333333,-0.17999999999999999,1.85000000000000009,9.58999999999999986,0.00000000000000000,0.00000000000000000,11.68217219200000123
0.37002229690551758,-56.17340229507438920,24.28610590704820993,31.51981927518020044,0.69194552249572483,-0.00296896819680237,0.00410993205252852,0.72193191339937912,-0.00222222222222222,-0.00111111111111111,-0.28333333333333333,-0.17999999999999999,1.85000000000000009,9.58999999999999986,0.00000000000000000,0.00000000000000000,11.68217219200000123
0.38002657890319824,-56.12561724121354700,24.29514616939097138,31.53881492365732697,0.69191333660894339,-0.00300742975583323,0.00401638657560273,0.72196312830214382,-0.00222222222222222,-0.00111111111111111,-0.28333333333333333,-0.17999999999999999,1.85000000000000009,9.58999999999999986,0.00000000000000000,0.00000000000000000,11.68217219200000123
0.39005827903747559,-56.11556250256021627,24.31894197338139563,31.53765504746307968,0.69197649694122787,-0.00305518647976956,0.00393370608646838,0.72190284628400347,-0.00111111111111111,0.00111111111111111,-0.00111111111111111,-0.20000000000000001,1.86000000000000010,9.63000000000000078,0.00000000000000000,0.00000000000000000,11.69863987200000111
0.40006232261657715,-56.12678247274587306,24.31673364691149075,31.52274996858497502,0.69194635022839501,-0.00302026704616624,0.00391758969306134,0.72193197663185027,-0.00111111111111111,0.00111111111111111,-0.00111111111111111,-0.20000000000000001,1.86000000000000010,9.63000000000000078,0.00000000000000000,0.00000000000000000,11.69863987200000111
0.41012907028198242,-56.17610797679738965,24.28456408001710898,31.55205549067981963,0.69193708213647931,-0.00296312382144875,0.00409268239013146,0.72194012508831196,-0.00111111111111111,0.00111111111111111,-0.00111111111111111,-0.20000000000000001,1.86000000000000010,9.63000000000000078,0.00000000000000000,0.00000000000000000,11.69863987200000111
0.42005705833435059,-56.12437654448802249,24.33302889023689275,31.54079012067709087,0.69194016784461077,-0.00298116003687751,0.00395759969707907,0.72193784650248360,-0.00111111111111111,0.00111111111111111,-0.00111111111111111,-0.20000000000000001,1.86000000000000010,9.63000000000000078,0.00000000000000000,0.00000000000000000,11.69863987200000111
0.43002724647521973,-56.13195032363982051,24.31210115418926065,31.52145129809802881,0.69197239954509870,-0.00294124446900618,0.00400746754746540,0.72190684132554672,-0.00111111111111111,0.00111111111111111,-0.00111111111111111,-0.20000000000000001,1.86000000000000010,9.63000000000000078,0.00000000000000000,0.00000000000000000,11.69863987200000111
0.44004559516906738,-56.08993820432692701,24.28267999926471177,31.53418040460796945,0.69200055950550377,-0.00307699081429853,0.00401574619780799,0.72187923612892002,-0.00111111111111111,0.00111111111111111,-0.00111111111111111,-0.20000000000000001,1.86000000000000010,9.63000000000000078,0.00000000000000000,0.00000000000000000,11.69863987200000111
0.45006299018859863,-56.14421865409909174,24.29705394909490579,31.51479700705515441,0.69192092197686672,-0.00302594818543963,0.00402399000875112,0.72195573885984976,-0.00111111111111111,0.00111111111111111,-0.00111111111111111,-0.20000000000000001,1.86000000000000010,9.63000000000000078,0.00000000000000000,0.00000000000000000,11.69863987200000111
0.46001148223876953,-56.10775979954996728,24.31286758074000787,31.56849265148327888,0.69199926156466385,-0.00295565211259236,0.00403969694507248,0.72188085371696986,-0.00111111111111111,0.00333333333333333,0.00111111111111111,-0.17999999999999999,1.85000000000000009,9.63000000000000078,0.00000000000000000,0.00000000000000000,11.68546572800000050
0.47002673149108887,-56.11838851443966547,24.32473216193890764,31.52407074171937040,0.69201375329527159,-0.00293588020312225,0.00401622894762637,0.72186717321309468,-0.00111111111111111,0.00333333333333333,0.00111111111111111,-0.17999999999999999,1.85000000000000009,9.63000000000000078,0.00000000000000000,0.00000000000000000,11.68546572800000050
0.48002362251281738,-56.13071006357063908,24.32111125127660856,31.53299682281420147,0.69195750328682948,-0.00294076723878883,0.00397994984546551,0.72192127377736448,-0.00111111111111111,0.00333333333333333,0.00111111111111111,-0.17999999999999999,1.85000000000000009,9.63000000000000078,0.00000000000000000,0.00000000000000000,11.68546572800000050
0.49007773399353027,-56.14792841521431654,24.29239356130343097,31.52945672200739224,0.69195943455727116,-0.00303842456753553,0.00398538564348725,0.72191898825602430,0.00000000000000000,-0.00111111111111111,-0.00222222222222222,-0.19000000000000000,1.85000000000000009,9.66000000000000014,0.00000000000000000,0.00000000000000000,11.69205280000000080
0.50003433227539062,-56.11194258885464592,24.30412875626909042,31.55426491292958247,0.69195026362296419,-0.00303426321189651,0.00395894974019030,0.72192794144279071,0.00000000000000000,-0.00111111111111111,-0.00222222222222222,-0.19000000000000000,1.85000000000000009,9.66000000000000014,0.00000000000000000,0.00000000000000000,11.69205280000000080
0.51002168655395508,-56.12664014825176650,24.31855667754263095,31.51752285394747943,0.69200458174964974,-0.00301753419176933,0.00398991563818927,0.72187577456103513,0.00000000000000000,-0.00111111111111111,-0.00222222222222222,-0.19000000000000000,1.85000000000000009,9.66000000000000014,0.00000000000000000,0.00000000000000000,11.69205280000000080
0.52001643180847168,-56.13044345707879756,24.30313737540943819,31.52468465867229597,0.69199779053605803,-0.00299215618094576,0.00403826714410850,0.72188212146656983,0.00000000000000000,-0.00111111111111111,-0.00222222222222222,-0.19000000000000000,1.85000000000000009,9.66000000000000014,0.00000000000000000,0.00000000000000000,11.69205280000000080
0.53002452850341797,-56.13463091223142243,24.31565424611379100,31.53411053791782948,0.69200985826901584,-0.00294403600345092,0.00402802943220986,0.72187080817096405,0.00000000000000000,-0.00111111111111111,-0.00222222222222222,-0.19000000000000000,1.85000000000000009,9.66000000000000014,0.00000000000000000,0.00000000000000000,11.69205280000000080
0.54006314277648926,-56.13974763862089645,24.30070799610854237,31.53517088398597323,0.69197667821562792,-0.00302876909590083,0.00402431880326766,0.72190228439976467,0.00000000000000000,-0.00222222222222222,-0.00222222222222222,-0.20000000000000001,1.85000000000000009,9.59999999999999964,0.00000000000000000,0.00000000000000000,11.69863987200000111
0.55012011528015137,-56.14725080998019990,24.30978359848832682,31.52973010346796556,0.69191569529940355,-0.00298474897976280,0.00396316603290229,0.72196125601507599,0.00000000000000000,-0.00222222222222222,-0.00222222222222222,-0.20000000000000001,1.85000000000000009,9.59999999999999964,0.00000000000000000,0.00000000000000000,11.69863987200000111
0.56002283096313477,-56.16275449579992340,24.29031746695536143,31.52130481593586708,0.69194246359782297,-0.00303093249286907,0.00403281046364045,0.72193502267043641,0.00000000000000000,-0.00222222222222222,-0.00222222222222222,-0.20000000000000001,1.85000000000000009,9.59999999999999964,0.00000000000000000,0.00000000000000000,11.69863987200000111
0.57002973556518555,-56.16089604047990491,24.31088391283263661,31.51329991403155262,0.69195085140724855,-0.00298992028449905,0.00403973698158255,0.72192711553078281,0.00000000000000000,-0.00222222222222222,-0.00222222222222222,-0.20000000000000001,1.85000000000000009,9.59999999999999964,0.00000000000000000,0.00000000000000000,11.69863987200000111
0.58002161979675293,-56.20014994425243771,24.34445041468939053,31.56238879364257954,0.69187057950257147,-0.00302937905296537,0.00390900885270722,0.72200460090716811,0.00111111111111111,-0.00000000000000000,-0.00111111111111111,-0.17000000000000001,1.85000000000000009,9.65000000000000036,0.00000000000000000,0.00000000000000000,11.68875926399999976
0.59003686904907227,-56.14945485286850868,24.34202569085123358,31.54205310935712703,0.69196976198715654,-0.00303160651173207,0.00387611608852043,0.72190971290145733,0.00111111111111111,-0.00000000000000000,-0.00111111111111111,-0.17000000000000001,1.85000000000000009,9.65000000000000036,0.00000000000000000,0.00000000000000000,11.68875926399999976
0.60005187988281250,-56.10986291853010499,24.30893186015823559,31.52339596735080463,0.69194355072085423,-0.00306846778381376,0.00394091876857229,0.72193432961768500,0.00111111111111111,-0.00000000000000000,-0.00111111111111111,-0.17000000000000001,1.85000000000000009,9.65000000000000036,0.00000000000000000,0.00000000000000000,11.68875926399999976
0.60998868942260742,-56.11929638470103754,24.31628359823702468,31.56027247867851315,0.69194305979630810,-0.00305875816993186,0.00389669468200510,0.72193508140880336,0.00111111111111111,-0.00000000000000000,-0.00111111111111111,-0.17000000000000001,1.85000000000000009,9.65000000000000036,0.00000000000000000,0.00000000000000000,11.68875926399999976
0.62001276016235352,-56.17608204075636280,24.32189342135825072,31.54437041133995479,0.69188798889227465,-0.00298364086367192,0.00398067727661005,0.72198771660064909,0.00111111111111111,-0.00000000000000000,-0.00111111111111111,-0.17000000000000001,1.85000000000000009,9.65000000000000036,0.00000000000000000,0.00000000000000000,11.68875926399999976
0.63002705574035645,-56.13889772937913136,24.31526725044047410,31.53714643199167256,0.69195354622290939,-0.00304584659276732,0.00392920059342914,0.72192490888649197,0.00111111111111111,-0.00000000000000000,-0.00111111111111111,-0.17000000000000001,1.85000000000000009,9.65000000000000036,0.00000000000000000,0.00000000000000000,11.68875926399999976
0.64001941680908203,-56.15127272922317303,24.32816905353064740,31.52580924992915712,0.69192973428113091,-0.00307915238967725,0.00388990295341431,0.72194780302541117,-0.28444444444444444,-0.00222222222222222,-0.00000000000000000,-0.20000000000000001,1.87000000000000011,9.63000000000000078,0.00000000000000000,0.00000000000000000,11.69205280000000080
0.65002703666687012,-56.13377426313146401,24.29556626087248006,31.51789899134164941,0.69195201630578806,-0.00302346641329850,0.00401031070972261,0.72192602334949352,-0.28444444444444444,-0.00222222222222222,-0.00000000000000000,-0.20000000000000001,1.87000000000000011,9.63000000000000078,0.00000000000000000,0.00000000000000000,11.69205280000000080
0.66001534461975098,-56.13130170078513714,24.31312184291975242,31.52687397604946185,0.69197675892784194,-0.00304015755126145,0.00396191971306832,0.72190250431617831,-0.28444444444444444,-0.00222222222222222,-0.00000000000000000,-0.20000000000000001,1.87000000000000011,9.63000000000000078,0.00000000000000000,0.00000000000000000,11.69205280000000080
0.67002201080322266,-56.18906507363086433,24.32650457081566131,31.56879903168392687,0.69190543101462032,-0.00295008475763208,0.00400956717583711,0.72197097926679688,-0.28444444444444444,-0.00222222222222222,-0.00000000000000000,-0.20000000000000001,1.87000000000000011,9.63000000000000078,0.00000000000000000,0.00000000000000000,11.69205280000000080
0.67999577522277832,-56.16107569374509723,24.31322096513019559,31.52061210933200996,0.69193647939881253,-0.00302228208253098,0.00400582334961909,0.72194094472296144,-0.28444444444444444,-0.00222222222222222,-0.00000000000000000,-0.20000000000000001,1.87000000000000011,9.63000000000000078,0.00000000000000000,0.00000000000000000,11.69205280000000080
0.69003462791442871,-56.16939583708542472,24.29843747011168986,31.51561324379404638,0.69198115912780322,-0.00297600696299876,0.00403100397331916,0.72189817135221013,0.00000000000000000,-0.00000000000000000,-0.00111111111111111,-0.20000000000000001,1.84000000000000008,9.63000000000000078,0.00000000000000000,0.00000000000000000,11.68875926399999976
0.70001888275146484,-56.15666003679971396,24.28547322883372672,31.50870679644033956,0.69188907629421725,-0.00302383189606051,0.00408974679663602,0.72198589772691402,0.00000000000000000,-0.00000000000000000,-0.00111111111111111,-0.20000000000000001,1.84000000000000008,9.63000000000000078,0.00000000000000000,0.00000000000000000,11.68875926399999976
0.71005535125732422,-56.21359560268980005,24.27981933434368500,31.52351335365244722,0.69193822614770506,-0.00300162694274904,0.00406796200999057,0.72193900927734167,0.00000000000000000,-0.00000000000000000,-0.00111111111111111,-0.20000000000000001,1.84000000000000008,9.63000000000000078,0.00000000000000000,0.00000000000000000,11.68875926399999976
0.72013711929321289,-56.16638213534062629,24.28348337948521518,31.46535948001928418,0.69193275577664026,-0.00315543028741256,0.00394606587207386,0.72194427299285291,0.00000000000000000,-0.00000000000000000,-0.00111111111111111,-0.20000000000000001,1.84000000000000008,9.63000000000000078,0.00000000000000000,0.00000000000000000,11.68875926399999976
0.73001718521118164,-56.15796484310268255,24.28209280539232040,31.52131078096182293,0.69195074779961641,-0.00301010530269424,0.00411950380197851,0.72192668019269390,0.00000000000000000,-0.00000000000000000,-0.00111111111111111,-0.20000000000000001,1.84000000000000008,9.63000000000000078,0.00000000000000000,0.00000000000000000,11.68875926399999976
0.74003529548645020,-56.13595732471991795,24.31477390552430151,31.53093836373461656,0.69195147926467049,-0.00307136689053545,0.00398598090042815,0.72192647063611615,-0.00111111111111111,-0.27888888888888891,0.00111111111111111,-0.17999999999999999,1.85000000000000009,9.58999999999999986,0.00000000000000000,0.00000000000000000,11.67229158399999989
0.75007081031799316,-56.14021445494825002,24.31596450549353960,31.52526679449627167,0.69193402619179378,-0.00301101434617342,0.00399252774840040,0.72194341669745798,-0.00111111111111111,-0.27888888888888891,0.00111111111111111,-0.17999999999999999,1.85000000000000009,9.58999999999999986,0.00000000000000000,0.00000000000000000,11.67229158399999989
0.76003432273864746,-56.12466900125085800,24.31479179780363253,31.54987842141589383,0.69198548865752096,-0.00300415924080451,0.00398632377837892,0.72189415272420776,-0.00111111111111111,-0.27888888888888891,0.00111111111111111,-0.17999999999999999,1.85000000000000009,9.58999999999999986,0.00000000000000000,0.00000000000000000,11.67229158399999989
0.77001786231994629,-56.16918623561349477,24.31300238760329435,31.51468104564043315,0.69191736170917595,-0.00296366162023257,0.00405236472146117,0.72195925066126732,-0.00111111111111111,-0.27888888888888891,0.00111111111111111,-0.17999999999999999,1.85000000000000009,9.58999999999999986,0.00000000000000000,0.00000000000000000,11.67229158399999989
0.78003811836242676,-56.14519515020391083,24.31889732823372086,31.53766198716978764,0.69200476437246938,-0.00293902828168030,0.00400860695203436,0.72187581983944205,-0.00111111111111111,-0.27888888888888891,0.00111111111111111,-0.17999999999999999,1.85000000000000009,9.58999999999999986,0.00000000000000000,0.00000000000000000,11.67229158399999989
0.79003572463989258,-56.11343170068406749,24.30051871032965494,31.49741850190055459,0.69200263793882422,-0.00308828207632807,0.00403882706332016,0.72187706673330343,-0.00111111111111111,-0.27888888888888891,0.00111111111111111,-0.17999999999999999,1.85000000000000009,9.58999999999999986,0.00000000000000000,0.00000000000000000,11.67229158399999989
0.80006003379821777,-56.13772677636376329,24.32915063126708333,31.51783500478896727,0.69194610154692360,-0.00300985004821090,0.00396667308991343,0.72193199046814616,-0.00111111111111111,-0.27888888888888891,0.00111111111111111,-0.17999999999999999,1.85000000000000009,9.58999999999999986,0.00000000000000000,0.00000000000000000,11.67229158399999989
0.81003022193908691,-56.18681490692338087,24.30055218595138911,31.53351070585926763,0.69195048625504718,-0.00298100681151325,0.00406173932173819,0.72192737892635406,-0.00111111111111111,-0.00000000000000000,0.00333333333333333,-0.20000000000000001,1.85000000000000009,9.61999999999999922,0.00000000000000000,0.00000000000000000,11.69534633600000006
0.82002925872802734,-56.13411069740010362,24.30346324123705060,31.52903514740790669,0.69196347885698883,-0.00298707847309001,0.00405176928056537,0.72191495652606241,-0.00111111111111111,-0.00000000000000000,0.00333333333333333,-0.20000000000000001,1.85000000000000009,9.61999999999999922,0.00000000000000000,0.00000000000000000,11.69534633600000006
0.82999134063720703,-56.11541418100960499,24.31297015996906907,31.55962058875334719,0.69199995736136133,-0.00294783501127840,0.00400620114015658,0.72188040535330045,-0.00111111111111111,-0.00000000000000000,0.00333333333333333,-0.20000000000000001,1.85000000000000009,9.61999999999999922,0.00000000000000000,0.00000000000000000,11.69534633600000006
0.84004330635070801,-56.14019382371444067,24.32467521614025330,31.52116076803237732,0.69200123729952578,-0.00296750211343162,0.00393225486695279,0.72187950440415871,0.00000000000000000,-0.00222222222222222,-0.00000000000000000,-0.17999999999999999,1.86000000000000010,9.60999999999999943,0.00000000000000000,0.00000000000000000,11.69863987200000111
0.85006618499755859,-56.06324967398552417,24.33705075690152242,31.54933376652180144,0.69197277311645977,-0.00305182310300146,0.00386592299591438,0.72190679611751440,0.00000000000000000,-0.00222222222222222,-0.00000000000000000,-0.17999999999999999,1.86000000000000010,9.60999999999999943,0.00000000000000000,0.00000000000000000,11.69863987200000111
0.86001634597778320,-56.14586553041132078,24.29703812719845857,31.53577814531596957,0.69199057286357668,-0.00300719355997730,0.00404713343960043,0.72188892813628447,0.00000000000000000,-0.00222222222222222,-0.00000000000000000,-0.17999999999999999,1.86000000000000010,9.60999999999999943,0.00000000000000000,0.00000000000000000,11.69863987200000111
0.87002801895141602,-56.14952894165571706,24.30717560326493398,31.51270331518376722,0.69197616372207227,-0.00298088568400149,0.00399779785342826,0.72190312423021519,0.00000000000000000,-0.00222222222222222,-0.00000000000000000,-0.17999999999999999,1.86000000000000010,9.60999999999999943,0.00000000000000000,0.00000000000000000,11.69863987200000111
0.88005018234252930,-56.16860546181401759,24.30118520358602652,31.50946418010958539,0.69193956603916040,-0.00297364966196677,0.00408456955950052,0.72193774707293124,0.00000000000000000,-0.00222222222222222,-0.00000000000000000,-0.17999999999999999,1.86000000000000010,9.60999999999999943,0.00000000000000000,0.00000000000000000,11.69863987200000111
0.89004516601562500,-56.15453770950347234,24.31482738350014117,31.52906243188399671,0.69193460023530595,-0.00305031164951263,0.00396147823086922,0.72194287259192091,-0.00222222222222222,-0.00000000000000000,-0.00000000000000000,-0.17999999999999999,1.85000000000000009,9.63000000000000078,0.59999999999999998,-0.59999999999999998,11.69205280000000080
0.90005397796630859,-56.16070214710739350,24.31266993836986146,31.50821144330824453,0.69195977012991661,-0.00297490332022561,0.00402664452118919,0.72191870221368282,-0.00222222222222222,-0.00000000000000000,-0.00000000000000000,-0.17999999999999999,1.85000000000000009,9.63000000000000078,0.59999999999999998,-0.59999999999999998,11.69205280000000080
0.91002869606018066,-56.20100403483417040,24.29053681502631434,31.52723908101678774,0.69195965608380139,-0.00295576847672325,0.00408311284306577,0.72191857295307860,-0.00222222222222222,-0.00000000000000000,-0.00000000000000000,-0.17999999999999999,1.85000000000000009,9.63000000000000078,0.59999999999999998,-0.59999999999999998,11.69205280000000080
0.92002916336059570,-56.16126342665120319,24.32179981344129160,31.53875601642197068,0.69193466333260356,-0.00296833515939536,0.00402181755211885,0.72194282020722100,-0.00222222222222222,-0.00000000000000000,-0.00000000000000000,-0.17999999999999999,1.85000000000000009,9.63000000000000078,0.59999999999999998,-0.59999999999999998,11.69205280000000080
0.93002200126647949,-56.18263686345500219,24.31154236185833994,31.51350480310319213,0.69192246822171755,-0.00297805831278358,0.00413581008568149,0.72195382415607945,-0.00222222222222222,-0.00000000000000000,-0.00000000000000000,-0.17999999999999999,1.85000000000000009,9.63000000000000078,0.59999999999999998,-0.59999999999999998,11.69205280000000080
0.94004154205322266,-56.18662137745200624,24.29827699216005854,31.51616974507294344,0.69195207387526503,-0.00301627869482284,0.00400806833714211,0.72192601068998785,-0.00222222222222222,-0.00000000000000000,-0.00000000000000000,-0.17999999999999999,1.85000000000000009,9.63000000000000078,0.59999999999999998,-0.59999999999999998,11.69205280000000080
0.95005512237548828,-56.12851664932367157,24.31008989538652898,31.51559480441225958,0.69194252530870359,-0.00304652532441447,0.00396374412834778,0.72193528039939081,0.00111111111111111,-0.00444444444444444,0.00111111111111111,-0.19000000000000000,1.86000000000000010,9.61999999999999922,17.10000000000000142,-17.10000000000000142,11.70193340800000037
0.96002316474914551,-56.15114015887613164,24.31978340188188170,31.48724222015511032,0.69191531613875390,-0.00303404118671131,0.00403150316095795,0.72196103556144131,0.00111111111111111,-0.00444444444444444,0.00111111111111111,-0.19000000000000000,1.86000000000000010,9.61999999999999922,17.10000000000000142,-17.10000000000000142,11.70193340800000037
0.97002816200256348,-56.13383946597446794,24.28878905172975422,31.46415304285470071,0.69170423963685812,-0.00307120294235621,0.00398300772123864,0.72216338056590446,0.00111111111111111,-0.00444444444444444,0.00111111111111111,-0.19000000000000000,1.86000000000000010,9.61999999999999922,17.10000000000000142,-17.10000000000000142,11.70193340800000037
0.98002386093139648,-56.14041117575953876,24.13374466224953707,31.45750531663880523,0.69106434600048150,-0.00310084315991582,0.00399746644677947,0.72277553550229612,0.00111111111111111,-0.00444444444444444,0.00111111111111111,-0.19000000000000000,1.86000000000000010,9.61999999999999922,17.10000000000000142,-17.10000000000000142,11.70193340800000037
0.99003219604492188,-56.16972323037847303,23.92415587984237746,31.55018152098146444,0.69014722269113493,-0.00300746910962882,0.00399707118889259,0.72365170459495110,0.00111111111111111,-0.00444444444444444,0.00111111111111111,-0.19000000000000000,1.86000000000000010,9.61999999999999922,17.10000000000000142,-17.10000000000000142,11.70193340800000037
1.00005173683166504,-56.14719644166232371,23.72376063451545747,31.57572608067677677,0.68857081747823023,-0.00300414622249134,0.00394993997567773,0.72515212362443238,0.00111111111111111,-0.00444444444444444,0.00111111111111111,-0.19000000000000000,1.86000000000000010,9.61999999999999922,17.10000000000000142,-17.10000000000000142,11.70193340800000037
1.01003170013427734,-56.25066283877043105,23.62131837587897110,31.63961052956016928,0.68659709836786320,-0.00297396167627114,0.00409798066350574,0.72702048569435829,-0.00222222222222222,0.00777777777777778,0.28222222222222221,-3.41999999999999993,1.86000000000000010,9.85999999999999943,29.00000000000000000,-58.39999999999999858,11.64594329600000044
1.02003526687622070,-56.33856096264039337,23.57076708783194974,31.60933364225310882,0.68456664188370187,-0.00308920591276996,0.00418502508120679,0.72893172189991151,-0.00222222222222222,0.00777777777777778,0.28222222222222221,-3.41999999999999993,1.86000000000000010,9.85999999999999943,29.00000000000000000,-58.39999999999999858,11.64594329600000044
1.03004312515258789,-56.45311912785737007,23.66617125393259968,31.53562119908592365,0.68177972848707502,-0.00312960734269614,0.00426133442410127,0.73153841212262871,-0.00222222222222222,0.00777777777777778,0.28222222222222221,-3.41999999999999993,1.86000000000000010,9.85999999999999943,29.00000000000000000,-58.39999999999999858,11.64594329600000044
1.04004049301147461,-56.57494201255116195,23.66696854638579239,31.46216529065647549,0.67861094636471209,-0.00320203800372620,0.00428727678307533,0.73447842016249709,-0.00222222222222222,0.00777777777777778,0.28222222222222221,-3.41999999999999993,1.86000000000000010,9.85999999999999943,29.00000000000000000,-58.39999999999999858,11.64594329600000044
1.05007839202880859,-56.78723109180373996,23.37224927453554812,31.44107772650764332,0.67415565023629909,-0.00350063401139670,0.00442702236218028,0.73856773981063928,0.00111111111111111,-0.07666666666666666,0.51333333333333331,0.34000000000000002,2.35999999999999988,9.73000000000000043,25.80000000000000071,-64.20000000000000284,11.58665964800000125
1.06002879142761230,-56.90396645409484933,22.63967537298679034,31.56826587510103366,0.66911047243202504,-0.00404252472617794,0.00494094722799420,0.74313553320785364,0.00111111111111111,-0.07666666666666666,0.51333333333333331,0.34000000000000002,2.35999999999999988,9.73000000000000043,25.80000000000000071,-64.20000000000000284,11.58665964800000125
1.07002782821655273,-57.03201327327250425,21.98219611343924385,31.54446537299225284,0.66365809873077386,-0.00338110104100054,0.00470748620222146,0.74801359327117911,0.00111111111111111,-0.07666666666666666,0.51333333333333331,0.34000000000000002,2.35999999999999988,9.73000000000000043,25.80000000000000071,-64.20000000000000284,11.58665964800000125
1.08002662658691406,-57.18983968369133208,21.36234520583057517,31.65687516660834433,0.65744757120069852,-0.00230759839363169,0.00440958291160147,0.75348385629056547,0.00111111111111111,-0.07666666666666666,0.51333333333333331,0.34000000000000002,2.35999999999999988,9.73000000000000043,25.80000000000000071,-64.20000000000000284,11.58665964800000125
1.09003114700317383,-57.26285016492252566,20.23680538601458068,31.55060647496209114,0.65130749009484212,-0.00257035516188978,0.00449741530953815,0.75879623079996417,-0.01666666666666667,0.14222222222222222,1.40111111111111120,-6.11000000000000032,2.10000000000000009,9.22000000000000064,33.29999999999999716,-56.70000000000000284,11.61959500800000100
1.10007190704345703,-57.27473202092831883,19.16953564931666421,31.60792457752524953,0.64567686097952071,-0.00262584102948969,0.00417960125480833,0.76359480556632375,-0.01666666666666667,0.14222222222222222,1.40111111111111120,-6.11000000000000032,2.10000000000000009,9.22000000000000064,33.29999999999999716,-56.70000000000000284,11.61959500800000100
1.10999059677124023,-57.28419963683526106,17.79720462537175152,31.55534638155763716,0.63950222604730289,-0.00251877754393094,0.00398197198030717,0.76877480612945248,-0.01666666666666667,0.14222222222222222,1.40111111111111120,-6.11000000000000032,2.10000000000000009,9.22000000000000064,33.29999999999999716,-56.70000000000000284,11.61959500800000100
1.12001109123229980,-57.33784504426333939,16.33901197698213537,31.64216026195741804,0.63383716688183456,-0.00277655160602591,0.00440219392195796,0.77344900111711434,-0.01666666666666667,0.14222222222222222,1.40111111111111120,-6.11000000000000032,2.10000000000000009,9.22000000000000064,33.29999999999999716,-56.70000000000000284,11.61959500800000100
1.13002347946166992,-57.40866805360783331,14.93777036018040860,31.60474628501404126,0.62762108985384457,-0.00294134113856157,0.00451319462688526,0.77850031930451946,-0.01666666666666667,0.14222222222222222,1.40111111111111120,-6.11000000000000032,2.10000000000000009,9.22000000000000064,33.29999999999999716,-56.70000000000000284,11.61959500800000100
1.14003586769104004,-57.08303632135979910,14.07496623618701825,31.44110928207971156,0.62226700130056234,-0.00314394409344108,0.00388388894866513,0.78278912237880349,-0.01666666666666667,0.14222222222222222,1.40111111111111120,-6.11000000000000032,2.10000000000000009,9.22000000000000064,33.29999999999999716,-56.70000000000000284,11.61959500800000100
1.15008330345153809,-56.91621412790058798,12.93266259064750123,31.32763630831948021,0.61607526577394456,-0.00310612620840171,0.00402113080017056,0.78767090170237286,-0.03888888888888889,-0.21777777777777776,1.68555555555555547,1.01000000000000001,1.62999999999999989,12.24000000000000021,40.00000000000000000,-50.00000000000000000,11.66241097600000032
1.16002964973449707,-56.90885698110809443,11.68992718337268855,31.46174985750961639,0.60962684711836823,-0.00267400936483488,0.00418322048133698,0.79267298276959020,-0.03888888888888889,-0.21777777777777776,1.68555555555555547,1.01000000000000001,1.62999999999999989,12.24000000000000021,40.00000000000000000,-50.00000000000000000,11.66241097600000032
1.17002797126770020,-57.17823075508925967,10.74284451985971600,31.72608219435841193,0.60356043997843145,-0.00197888158786755,0.00421021993313134,0.79730367700695981,-0.03888888888888889,-0.21777777777777776,1.68555555555555547,1.01000000000000001,1.62999999999999989,12.24000000000000021,40.00000000000000000,-50.00000000000000000,11.66241097600000032
1.18003964424133301,-57.06168649218523825,9.81430196411799294,31.70340189228798877,0.59668132548985131,-0.00231315744722619,0.00399317410935310,0.80246501461112352,-0.03888888888888889,-0.21777777777777776,1.68555555555555547,1.01000000000000001,1.62999999999999989,12.24000000000000021,40.00000000000000000,-50.00000000000000000,11.66241097600000032
1.19003796577453613,-57.13054335464196498,9.30332422822481497,31.66922275834952316,0.59052184875822700,-0.00240359016058208,0.00386497567572414,0.80700881708723082,-0.04000000000000000,0.02222222222222222,1.58333333333333326,1.09000000000000008,2.12999999999999989,7.79000000000000004,40.79999999999999716,-49.20000000000000284,11.64594329600000044
1.20007729530334473,-57.07788211071299855,8.76200197127315761,31.65048698578788944,0.58372323682117988,-0.00271026691245473,0.00395216038095973,0.81193855535784887,-0.04000000000000000,0.02222222222222222,1.58333333333333326,1.09000000000000008,2.12999999999999989,7.79000000000000004,40.79999999999999716,-49.20000000000000284,11.64594329600000044
1.21002936363220215,-57.06398342620767750,8.38620958932519933,31.31836777615197676,0.57689348341599489,-0.00294909027517488,0.00421645150819264,0.81680317898217514,-0.04000000000000000,0.02222222222222222,1.58333333333333326,1.09000000000000008,2.12999999999999989,7.79000000000000004,40.79999999999999716,-49.20000000000000284,11.64594329600000044
1.22002744674682617,-57.12185307989506100,8.12519973255082029,31.22785065620047362,0.57088323644351069,-0.00298076222300400,0.00420364368347042,0.82101508803683687,-0.04000000000000000,0.02222222222222222,1.58333333333333326,1.09000000000000008,2.12999999999999989,7.79000000000000004,40.79999999999999716,-49.20000000000000284,11.64594329600000044
1.23004055023193359,-57.12003148099626060,7.79604241804825282,31.23355045451958389,0.56421809084661179,-0.00312593581323102,0.00383137825436332,0.82561098286503443,-0.04333333333333333,0.02222222222222222,1.73222222222222233,1.72999999999999998,0.72999999999999998,12.32000000000000028,40.79999999999999716,-49.20000000000000284,11.65253036800000075
1.24005889892578125,-57.28789151917974465,7.41669425507772573,31.39358612086741473,0.55802479892338264,-0.00319849645042060,0.00367679016845196,0.82980996295599674,-0.04333333333333333,0.02222222222222222,1.73222222222222233,1.72999999999999998,0.72999999999999998,12.32000000000000028,40.79999999999999716,-49.20000000000000284,11.65253036800000075
1.25003027915954590,-57.46293998235532996,6.84990359774004531,31.46337718447979981,0.55119492991304886,-0.00329670853718584,0.00359876608569597,0.83436222939058702,-0.04333333333333333,0.02222222222222222,1.73222222222222233,1.72999999999999998,0.72999999999999998,12.32000000000000028,40.79999999999999716,-49.20000000000000284,11.65253036800000075
1.26001143455505371,-57.65259028859350110,6.54562554297016064,31.43789103022955445,0.54424647320540798,-0.00294673121953889,0.00363753090493967,0.83891230861604948,-0.04333333333333333,0.02222222222222222,1.73222222222222233,1.72999999999999998,0.72999999999999998,12.32000000000000028,40.79999999999999716,-49.20000000000000284,11.65253036800000075
1.27002143859863281,-57.73781169190272777,6.17603403134420148,31.43484142190202135,0.53795538247612307,-0.00263752133027762,0.00403554555061625,0.84295952709386301,-0.04333333333333333,0.02222222222222222,1.73222222222222233,1.72999999999999998,0.72999999999999998,12.32000000000000028,40.79999999999999716,-49.20000000000000284,11.65253036800000075
1.28003573417663574,-57.82374112063242677,5.87793850326886247,31.38986012981928653,0.53078858797258821,-0.00244198700332702,0.00452490468962822,0.84748866471185968,-0.04333333333333333,0.02222222222222222,1.73222222222222233,1.72999999999999998,0.72999999999999998,12.32000000000000028,40.79999999999999716,-49.20000000000000284,11.65253036800000075
1.29010486602783203,-57.77744998314633307,5.56695523062683151,31.49932378902356689,0.52392566933881246,-0.00238297028785536,0.00459691671343485,0.85174825084482209,-0.05444444444444444,0.03777777777777778,1.63444444444444437,-0.06000000000000000,1.28000000000000003,10.01999999999999957,40.79999999999999716,-49.20000000000000284,11.66899804800000062
1.30007195472717285,-57.96859887171265058,5.65267601683239018,31.64920595793227776,0.51763770080234839,-0.00191264147654579,0.00381015645089027,0.85558929120136873,-0.05444444444444444,0.03777777777777778,1.63444444444444437,-0.06000000000000000,1.28000000000000003,10.01999999999999957,40.79999999999999716,-49.20000000000000284,11.66899804800000062
1.31002783775329590,-58.23432669354010471,5.53395758589855991,31.79145746310837239,0.51036893693519148,-0.00130386060290530,0.00339736628445684,0.85994785078020863,-0.05444444444444444,0.03777777777777778,1.63444444444444437,-0.06000000000000000,1.28000000000000003,10.01999999999999957,40.79999999999999716,-49.20000000000000284,11.66899804800000062
1.32002925872802734,-58.37075470119842890,5.13348208363623559,31.76017799853678625,0.50377816115722041,-0.00125297906580478,0.00322684908506061,0.86382612939728365,-0.05444444444444444,0.03777777777777778,1.63444444444444437,-0.06000000000000000,1.28000000000000003,10.01999999999999957,40.79999999999999716,-49.20000000000000284,11.66899804800000062
1.33002257347106934,-58.20455887750434698,4.44877689892935724,31.69179138781343497,0.49628281854868400,-0.00189214066864400,0.00321038585332561,0.86815291120846738,-0.05444444444444444,0.03777777777777778,1.63444444444444437,-0.06000000000000000,1.28000000000000003,10.01999999999999957,40.79999999999999716,-49.20000000000000284,11.66899804800000062
1.34004068374633789,-58.28559672244074363,4.29413812834227837,31.71982044471192808,0.48977280184984529,-0.00162512988381167,0.00312050460561955,0.87184300419973504,-0.05444444444444444,0.03777777777777778,1.63444444444444437,-0.06000000000000000,1.28000000000000003,10.01999999999999957,40.79999999999999716,-49.20000000000000284,11.66899804800000062
1.35000610351562500,-58.52513863062208799,3.91092287143901496,31.72911494639247465,0.48232106599141716,-0.00141287017267825,0.00316911461291169,0.87598764249922401,-0.05888888888888889,-0.28111111111111109,1.69666666666666677,1.70999999999999996,1.95999999999999996,9.07000000000000028,41.50000000000000000,-48.50000000000000000,11.65253036800000075
1.36001038551330566,-58.46187236599155312,3.53656251061002314,31.89236345042519005,0.47534102080058988,-0.00169025778390780,0.00309425206131724,0.87979456839483738,-0.05888888888888889,-0.28111111111111109,1.69666666666666677,1.70999999999999996,1.95999999999999996,9.07000000000000028,41.50000000000000000,-48.50000000000000000,11.65253036800000075
1.37002372741699219,-58.44447388335731119,3.14607406048589411,31.97405461903921164,0.46859055218506740,-0.00169429025654813,0.00308487116822652,0.88340846008700580,-0.05888888888888889,-0.28111111111111109,1.69666666666666677,1.70999999999999996,1.95999999999999996,9.07000000000000028,41.50000000000000000,-48.50000000000000000,11.65253036800000075
1.38002395629882812,-58.50751132720298386,2.88881451613024121,32.10327141095812209,0.46131580897220803,-0.00147581685166635,0.00286549925779290,0.88723014785958498,-0.05888888888888889,-0.28111111111111109,1.69666666666666677,1.70999999999999996,1.95999999999999996,9.07000000000000028,41.50000000000000000,-48.50000000000000000,11.65253036800000075
1.39001679420471191,-58.31269778720962194,2.30669737399031272,32.09063546774761022,0.45362191279539199,-0.00126479845352687,0.00318301206455284,0.89118765080701090,-0.01111111111111111,-0.07666666666666666,1.70333333333333337,-0.97999999999999998,1.83000000000000007,10.73000000000000043,41.50000000000000000,-48.50000000000000000,11.65911744000000105
1.40007829666137695,-58.20221836630131662,1.95054906403087602,32.22479751618008947,0.44699266929860870,-0.00101382006355935,0.00322625517860253,0.89453122753747738,-0.01111111111111111,-0.07666666666666666,1.70333333333333337,-0.97999999999999998,1.83000000000000007,10.73000000000000043,41.50000000000000000,-48.50000000000000000,11.65911744000000105
1.41002035140991211,-58.05945659273360349,1.46891244524007902,32.10760556933140464,0.43925362449109995,-0.00106128569504887,0.00332497874191203,0.89835631659184700,-0.01111111111111111,-0.07666666666666666,1.70333333333333337,-0.97999999999999998,1.83000000000000007,10.73000000000000043,41.50000000000000000,-48.50000000000000000,11.65911744000000105
1.42001032829284668,-58.13457101455264109,1.27319446024303784,32.05390284325668659,0.43248564233779391,-0.00075627189594545,0.00324060292326419,0.90163467974406342,-0.01111111111111111,-0.07666666666666666,1.70333333333333337,-0.97999999999999998,1.83000000000000007,10.73000000000000043,41.50000000000000000,-48.50000000000000000,11.65911744000000105
1.43002271652221680,-57.81916508728327386,0.87868851238221168,31.92794423956084415,0.42500513401288970,-0.00178733154374363,0.00335554788438353,0.90518295488096423,-0.01111111111111111,-0.07666666666666666,1.70333333333333337,-0.97999999999999998,1.83000000000000007,10.73000000000000043,41.50000000000000000,-48.50000000000000000,11.65911744000000105
1.44001531600952148,-57.26239801750605807,0.42715695637066159,31.95392493751613117,0.41767473108968717,-0.00261373961049890,0.00302963018128779,0.90858781012919732,0.00444444444444444,-0.15666666666666668,1.68777777777777782,-1.19999999999999996,1.98999999999999999,9.23000000000000043,41.50000000000000000,-48.50000000000000000,11.62618208000000131
1.45008206367492676,-56.80277039304656483,0.29743316039555151,31.91459927724097057,0.41030343090449078,-0.00301376620092619,0.00242741523238572,0.91194085304726846,0.00444444444444444,-0.15666666666666668,1.68777777777777782,-1.19999999999999996,1.98999999999999999,9.23000000000000043,41.50000000000000000,-48.50000000000000000,11.62618208000000131
1.45999002456665039,-56.47850149603006997,-0.03915407414290447,31.98515259429483137,0.40310691206505705,-0.00339277780523482,0.00206790661068878,0.91514426746081312,0.00444444444444444,-0.15666666666666668,1.68777777777777782,-1.19999999999999996,1.98999999999999999,9.23000000000000043,41.50000000000000000,-48.50000000000000000,11.62618208000000131
1.47001791000366211,-56.30786665355022791,-0.65962531637685140,31.94254639808827179,0.39649969498694565,-0.00316076965172846,0.00240622018282597,0.91802625861949028,0.00444444444444444,-0.15666666666666668,1.68777777777777782,-1.19999999999999996,1.98999999999999999,9.23000000000000043,41.50000000000000000,-48.50000000000000000,11.62618208000000131
1.48001575469970703,-56.62686237908929598,-0.92140459418157172,31.92304468552412189,0.38884757406395459,-0.00304841392667798,0.00213916484336486,0.92129457574159279,0.00444444444444444,-0.15666666666666668,1.68777777777777782,-1.19999999999999996,1.98999999999999999,9.23000000000000043,41.50000000000000000,-48.50000000000000000,11.62618208000000131
1.48998951911926270,-56.93576423375929352,-1.02211356278356402,31.89358845873269033,0.38170562364284638,-0.00287390792285536,0.00173907003466158,0.92427784414000247,-0.06222222222222222,-0.01555555555555556,1.69777777777777783,1.08000000000000007,1.70999999999999996,8.85999999999999943,41.50000000000000000,-48.50000000000000000,11.67558512000000093
1.50008463859558105,-57.33247220700477698,-1.19256413465636046,31.85517374481461061,0.37398320900209325,-0.00229760738530411,0.00205970067306800,0.92743034132916780,-0.06222222222222222,-0.01555555555555556,1.69777777777777783,1.08000000000000007,1.70999999999999996,8.85999999999999943,41.50000000000000000,-48.50000000000000000,11.67558512000000093
1.50998711585998535,-57.38528924060337744,-1.28207153712905142,31.99650259062253710,0.36667753786835233,-0.00169402855255806,0.00204800021081227,0.93034430142028779,-0.06222222222222222,-0.01555555555555556,1.69777777777777783,1.08000000000000007,1.70999999999999996,8.85999999999999943,41.50000000000000000,-48.50000000000000000,11.67558512000000093
1.52002906799316406,-57.33728682402542631,-1.32752936500120700,32.10670439338658610,0.35982622734510966,-0.00167322412410267,0.00152041067221628,0.93301659941664650,-0.06222222222222222,-0.01555555555555556,1.69777777777777783,1.08000000000000007,1.70999999999999996,8.85999999999999943,41.50000000000000000,-48.50000000000000000,11.67558512000000093
1.53003692626953125,-57.29794922526583179,-1.85110915297372958,32.27270200609721940,0.35226998919591868,-0.00199105750175952,0.00200334818182552,0.93589415907889550,-0.06222222222222222,-0.01555555555555556,1.69777777777777783,1.08000000000000007,1.70999999999999996,8.85999999999999943,41.50000000000000000,-48.50000000000000000,11.67558512000000093
1.54004883766174316,-57.20617057420832907,-2.17445375845650801,32.26106506646240746,0.34508470285230025,-0.00237047895475755,0.00159243516394202,0.93856720208896771,-0.01444444444444444,0.00777777777777778,1.68999999999999995,1.28000000000000003,1.70999999999999996,7.37999999999999989,41.50000000000000000,-48.50000000000000000,11.65911744000000105
1.55009150505065918,-57.13175399685122358,-2.78384694333753169,32.19424623998875035,0.33660596356197181,-0.00230961854482734,0.00202540731083239,0.94164058359966574,-0.01444444444444444,0.00777777777777778,1.68999999999999995,1.28000000000000003,1.70999999999999996,7.37999999999999989,41.50000000000000000,-48.50000000000000000,11.65911744000000105
1.55998778343200684,-57.37029973786273018,-3.03667383240267474,32.13077992463050236,0.32810088042792962,-0.00169346154894235,0.00191714372131770,0.94463922690641589,-0.01444444444444444,0.00777777777777778,1.68999999999999995,1.28000000000000003,1.70999999999999996,7.37999999999999989,41.50000000000000000,-48.50000000000000000,11.65911744000000105
1.57002925872802734,-57.38782232178445497,-3.26011561868009414,32.11580461315808321,0.32070217356245356,-0.00151286969570600,0.00185043752432562,0.94717707055152567,-0.01444444444444444,0.00777777777777778,1.68999999999999995,1.28000000000000003,1.70999999999999996,7.37999999999999989,41.50000000000000000,-48.50000000000000000,11.65911744000000105
1.58002090454101562,-57.41922962953666598,-3.60490904118341371,32.16114478390855425,0.31268864540124713,-0.00149417864469536,0.00176872649631310,0.94985285706465705,-0.01444444444444444,0.00777777777777778,1.68999999999999995,1.28000000000000003,1.70999999999999996,7.37999999999999989,41.50000000000000000,-48.50000000000000000,11.65911744000000105
1.59002161026000977,-57.28062031727508696,-4.08926671719197099,32.08351344967412899,0.30539475939160515,-0.00214947843812669,0.00216680841981683,0.95222094369944432,-0.01444444444444444,0.00777777777777778,1.68999999999999995,1.28000000000000003,1.70999999999999996,7.37999999999999989,41.50000000000000000,-48.50000000000000000,11.65911744000000105
1.60009574890136719,-57.05786998904403617,-4.50067249988770346,32.05953172691209119,0.29763071782967204,-0.00222036775808804,0.00261457490484205,0.95467491313497965,-0.01444444444444444,0.00777777777777778,1.68999999999999995,1.28000000000000003,1.70999999999999996,7.37999999999999989,41.50000000000000000,-48.50000000000000000,11.65911744000000105
1.60998702049255371,-56.95692966895878584,-4.59284191778341278,31.94825188464789889,0.28959881731157144,-0.00216957863234203,0.00224270992494448,0.95714303434360815,-0.01444444444444444,0.00777777777777778,1.68999999999999995,1.28000000000000003,1.70999999999999996,7.37999999999999989,41.50000000000000000,-48.50000000000000000,11.65911744000000105
1.62004280090332031,-56.89443476792155963,-4.92128328154054895,31.86814579271692693,0.28229835325581110,-0.00198733634699996,0.00235809173770135,0.95932170289567487,-0.03000000000000000,0.02777777777777778,1.98999999999999999,-0.78000000000000003,2.00000000000000000,8.11999999999999922,41.50000000000000000,-48.50000000000000000,11.66570451199999958
1.63002848625183105,-56.75953692147311358,-5.09751670422889003,31.90570681276785692,0.27425352049553148,-0.00206365424276277,0.00210847889474023,0.96165290107383472,-0.03000000000000000,0.02777777777777778,1.98999999999999999,-0.78000000000000003,2.00000000000000000,8.11999999999999922,41.50000000000000000,-48.50000000000000000,11.66570451199999958
1.64003825187683105,-56.81391241841421191,-5.47043454174160626,32.15337445642165903,0.26699184539259435,-0.00193125903546045,0.00195622007792368,0.96369486765023393,-0.03000000000000000,0.02777777777777778,1.98999999999999999,-0.78000000000000003,2.00000000000000000,8.11999999999999922,41.50000000000000000,-48.50000000000000000,11.66570451199999958
1.65009069442749023,-56.84373414844808536,-5.75720068653111117,32.28197551120000242,0.25874203943391072,-0.00138804956356068,0.00190862608242740,0.96594357365969763,-0.03000000000000000,0.02777777777777778,1.98999999999999999,-0.78000000000000003,2.00000000000000000,8.11999999999999922,41.50000000000000000,-48.50000000000000000,11.66570451199999958
1.65998792648315430,-56.80875365954877765,-6.06889258541566345,32.39298581325595450,0.25065459597872519,-0.00154387604176228,0.00181739390088533,0.96807364752942116,-0.03000000000000000,0.02777777777777778,1.98999999999999999,-0.78000000000000003,2.00000000000000000,8.11999999999999922,41.50000000000000000,-48.50000000000000000,11.66570451199999958
1.67003440856933594,-56.76167165582478447,-6.24238024956378013,32.52157143644532056,0.24329073510217308,-0.00123831414288320,0.00130842850140561,0.96995173735933127,-0.05444444444444444,-0.01222222222222222,1.69444444444444442,0.14999999999999999,2.04999999999999982,10.69999999999999929,41.50000000000000000,-48.50000000000000000,11.66899804800000062
1.68006443977355957,-56.75774806619640600,-6.59701791410910232,32.63037119902578098,0.23499096567365851,-0.00096816495956677,0.00126263565330393,0.97199625228679742,-0.05444444444444444,-0.01222222222222222,1.69444444444444442,0.14999999999999999,2.04999999999999982,10.69999999999999929,41.50000000000000000,-48.50000000000000000,11.66899804800000062
1.69005227088928223,-56.61416657398185492,-7.01792580770118946,32.53761993759538740,0.22743098118789054,-0.00164870785379676,0.00137005594163251,0.97379184300601007,-0.06555555555555556,-0.03666666666666667,1.68333333333333335,1.81000000000000005,1.54000000000000004,8.46000000000000085,41.50000000000000000,-48.50000000000000000,11.69205280000000080
1.70010232925415039,-56.43086501909304076,-7.34699587423891387,32.40255168811966513,0.21928481598519492,-0.00141571571289752,0.00114744512447742,0.97565918670253293,-0.06555555555555556,-0.03666666666666667,1.68333333333333335,1.81000000000000005,1.54000000000000004,8.46000000000000085,41.50000000000000000,-48.50000000000000000,11.69205280000000080
1.70998692512512207,-56.16075761057020799,-7.79086508782329190,32.29224311898451560,0.21137147520321456,-0.00145440141633196,0.00140617068972529,0.97740370721157321,-0.06555555555555556,-0.03666666666666667,1.68333333333333335,1.81000000000000005,1.54000000000000004,8.46000000000000085,41.50000000000000000,-48.50000000000000000,11.69205280000000080
1.72002792358398438,-55.60860808098890828,-8.04778880508186489,32.10740403690261502,0.20427166972530092,-0.00216055418753737,0.00129391474688057,0.97891099837414608,-0.06555555555555556,-0.03666666666666667,1.68333333333333335,1.81000000000000005,1.54000000000000004,8.46000000000000085,41.50000000000000000,-48.50000000000000000,11.69205280000000080
1.73003411293029785,-55.30210106325271369,-8.20360645130297428,32.04592280232776602,0.19625870153359387,-0.00234228177709904,0.00104485673124771,0.98054879738992973,-0.06555555555555556,-0.03666666666666667,1.68333333333333335,1.81000000000000005,1.54000000000000004,8.46000000000000085,41.50000000000000000,-48.50000000000000000,11.69205280000000080
1.74003577232360840,-54.99336638283057965,-8.23701507704051039,31.97492753566788437,0.18871869418711271,-0.00196117683267188,0.00071779294464423,0.98202896750708557,-0.06555555555555556,-0.03666666666666667,1.68333333333333335,1.81000000000000005,1.54000000000000004,8.46000000000000085,41.50000000000000000,-48.50000000000000000,11.69205280000000080
1.75009775161743164,-54.72907130673070242,-8.50181611542035398,31.77078595048213572,0.18025443125763760,-0.00174063092197082,0.00115552345914377,0.98361779923988402,-0.06555555555555556,-0.03666666666666667,1.68333333333333335,1.81000000000000005,1.54000000000000004,8.46000000000000085,41.50000000000000000,-48.50000000000000000,11.69205280000000080
1.75998759269714355,-54.62530911015456780,-8.77099787134920916,31.92511062803936284,0.17179822084926982,-0.00214645474577854,0.00076978525872245,0.98512952015240385,-0.05222222222222223,-0.06555555555555556,1.69666666666666677,0.25000000000000000,1.63999999999999990,9.52999999999999936,42.20000000000000284,-47.79999999999999716,11.65911744000000105
1.77000832557678223,-54.66256703943445672,-9.19157161595126659,32.16509469104529728,0.16444254092690075,-0.00206635403055265,0.00091912919735112,0.98638407130085204,-0.05222222222222223,-0.06555555555555556,1.69666666666666677,0.25000000000000000,1.63999999999999990,9.52999999999999936,42.20000000000000284,-47.79999999999999716,11.65911744000000105
1.78003454208374023,-54.62565713871799744,-9.64018774557726488,32.28944645682224035,0.15581220967835960,-0.00220953661010640,0.00050626588259743,0.98778409430298453,-0.05222222222222223,-0.06555555555555556,1.69666666666666677,0.25000000000000000,1.63999999999999990,9.52999999999999936,42.20000000000000284,-47.79999999999999716,11.65911744000000105
1.79003024101257324,-56.29148265036235443,-13.49529422835880155,30.47435153717881562,0.14125548739982308,-0.00504372976768572,0.00858081231003195,0.98992313728368286,-0.05222222222222223,-0.06555555555555556,1.69666666666666677,0.25000000000000000,1.63999999999999990,9.52999999999999936,42.20000000000000284,-47.79999999999999716,11.65911744000000105
1.80004549026489258,-54.36964435888271652,-9.93898541645069677,32.49251058266555958,0.14039294860795284,-0.00178769628781481,-0.00017259010304245,0.99009423507855998,-0.02555555555555556,0.00888888888888889,1.70666666666666678,-0.94999999999999996,1.53000000000000003,9.18999999999999950,4.40000000000000036,-4.40000000000000036,11.66570451199999958
1.80998730659484863,-54.21793559197309520,-10.10472463913026786,32.46788651923714752,0.13224837230572145,-0.00171484296159910,-0.00021514784699530,0.99121510331890594,-0.02555555555555556,0.00888888888888889,1.70666666666666678,-0.94999999999999996,1.53000000000000003,9.18999999999999950,4.40000000000000036,-4.40000000000000036,11.66570451199999958
1.82002758979797363,-54.18277891550626890,-10.25879957392796449,32.62745538949536694,0.12503953389854877,-0.00157410169581067,-0.00016422169230360,0.99215049775602304,-0.02555555555555556,0.00888888888888889,1.70666666666666678,-0.94999999999999996,1.53000000000000003,9.18999999999999950,4.40000000000000036,-4.40000000000000036,11.66570451199999958
1.83001995086669922,-54.16391778999268780,-10.26530644332312470,32.63699332948517196,0.11822873590146508,-0.00136965923724211,-0.00028683975315749,0.99298540158638227,-0.02555555555555556,0.00888888888888889,1.70666666666666678,-0.94999999999999996,1.53000000000000003,9.18999999999999950,4.40000000000000036,-4.40000000000000036,11.66570451199999958
1.84003806114196777,-53.80806275468975031,-10.17632060080317480,32.73258243908797027,0.11361609772519059,-0.00158143455913252,-0.00047989505253095,0.99352335206736053,-0.03777777777777778,-0.02333333333333333,1.68333333333333335,2.79000000000000004,1.63999999999999990,8.05000000000000071,-0.00000000000000000,0.00000000000000000,11.70522694399999963
1.85009217262268066,-53.33392419887669433,-10.12102585790966991,32.82858334947651713,0.11022889528368682,-0.00142047325508588,-0.00044945579418595,0.99390511161265016,-0.03777777777777778,-0.02333333333333333,1.68333333333333335,2.79000000000000004,1.63999999999999990,8.05000000000000071,-0.00000000000000000,0.00000000000000000,11.70522694399999963
1.85998821258544922,-52.90472229044336672,-10.04755047285689074,32.91642862712404849,0.10827522320453732,-0.00126419904870498,-0.00064238954211755,0.99411994506520818,-0.03777777777777778,-0.02333333333333333,1.68333333333333335,2.79000000000000004,1.63999999999999990,8.05000000000000071,-0.00000000000000000,0.00000000000000000,11.70522694399999963
1.87002873420715332,-52.46242876192460614,-10.23586039966549244,32.92509776544095246,0.10730839449387114,-0.00129457722442307,-0.00049998310948495,0.99422481489743797,-0.03777777777777778,-0.02333333333333333,1.68333333333333335,2.79000000000000004,1.63999999999999990,8.05000000000000071,-0.00000000000000000,0.00000000000000000,11.70522694399999963
1.88002181053161621,-52.05381054219311210,-10.50684481092882727,32.96589845409665998,0.10680042532562818,-0.00111163578318067,-0.00014626306762532,0.99427984593034091,-0.03777777777777778,-0.02333333333333333,1.68333333333333335,2.79000000000000004,1.63999999999999990,8.05000000000000071,-0.00000000000000000,0.00000000000000000,11.70522694399999963
1.89003086090087891,-51.84478308019023274,-10.66282205935728911,33.04960130439363297,0.10677060860203369,-0.00095114270581152,0.00003200429778517,0.99428322496260080,-0.03777777777777778,-0.02333333333333333,1.68333333333333335,2.79000000000000004,1.63999999999999990,8.05000000000000071,-0.00000000000000000,0.00000000000000000,11.70522694399999963
1.90002369880676270,-51.68709501819685670,-10.58858789572352066,33.00387854887680561,0.10721379359595380,-0.00111438349756568,-0.00017411075590585,0.99423534955141613,-0.02000000000000000,-0.08333333333333333,0.57555555555555560,-0.07000000000000001,1.82000000000000006,11.00999999999999979,-0.00000000000000000,0.00000000000000000,11.69534633600000006
1.90999150276184082,-51.48716169944620447,-10.40732561823856095,32.94374800562473382,0.10810017161601919,-0.00143634028055014,-0.00036215595319272,0.99413890310471453,-0.02000000000000000,-0.08333333333333333,0.57555555555555560,-0.07000000000000001,1.82000000000000006,11.00999999999999979,-0.00000000000000000,0.00000000000000000,11.69534633600000006
1.92002296447753906,-51.43959882815163809,-10.41316125646677193,32.92392200169656746,0.10876484141056540,-0.00148637198478190,-0.00038861814372080,0.99406632019558516,-0.02000000000000000,-0.08333333333333333,0.57555555555555560,-0.07000000000000001,1.82000000000000006,11.00999999999999979,-0.00000000000000000,0.00000000000000000,11.69534633600000006
1.93002176284790039,-51.46573902014801405,-10.51593644181042286,32.94976631525636179,0.10909454314777554,-0.00133381061299425,-0.00025060337096242,0.99403045164752468,-0.02000000000000000,-0.08333333333333333,0.57555555555555560,-0.07000000000000001,1.82000000000000006,11.00999999999999979,-0.00000000000000000,0.00000000000000000,11.69534633600000006
1.94003820419311523,-51.69503165782325738,-10.46207758091807172,32.97037243293854658,0.10911000122636620,-0.00133064479598632,-0.00088849735268076,0.99402839375405094,0.03111111111111111,0.03777777777777778,-0.04333333333333333,3.18000000000000016,0.68999999999999995,9.06000000000000050,-0.00000000000000000,0.00000000000000000,11.69534633600000006
1.95011401176452637,-51.70619589422656048,-10.52370598571321914,32.86487292978326735,0.10952722567285246,-0.00136826469049079,-0.00035284770213743,0.99398279169543280,0.03111111111111111,0.03777777777777778,-0.04333333333333333,3.18000000000000016,0.68999999999999995,9.06000000000000050,-0.00000000000000000,0.00000000000000000,11.69534633600000006
1.95998764038085938,-51.82038718207298444,-10.44192611723638642,32.84034319577380501,0.10978611705473711,-0.00147934277170035,-0.00027695952736456,0.99395409518771416,0.03111111111111111,0.03777777777777778,-0.04333333333333333,3.18000000000000016,0.68999999999999995,9.06000000000000050,-0.00000000000000000,0.00000000000000000,11.69534633600000006
1.97002720832824707,-51.96460546795776025,-10.36448132187627813,32.83218601199357778,0.10992314004017881,-0.00146994167645831,-0.00040395364274929,0.99393892135112172,0.03111111111111111,0.03777777777777778,-0.04333333333333333,3.18000000000000016,0.68999999999999995,9.06000000000000050,-0.00000000000000000,0.00000000000000000,11.69534633600000006
1.98001003265380859,-52.10219810041177624,-10.35697973986011711,32.80298603813832159,0.11004534548022192,-0.00151945138995141,-0.00040220868747492,0.99392532487797558,0.03111111111111111,0.03777777777777778,-0.04333333333333333,3.18000000000000016,0.68999999999999995,9.06000000000000050,-0.00000000000000000,0.00000000000000000,11.69534633600000006
1.99002861976623535,-52.11730277731619054,-10.43807147870813878,32.83143290345271481,0.10994003150808036,-0.00151881396879963,-0.00029400131612813,0.99393701824580005,0.03111111111111111,0.03777777777777778,-0.04333333333333333,3.18000000000000016,0.68999999999999995,9.06000000000000050,-0.00000000000000000,0.00000000000000000,11.69534633600000006
2.00010585784912109,-52.16295403112459184,-10.50160091812116825,32.86098064033304667,0.10989878833088097,-0.00139085907711897,-0.00011605910024914,0.99394180330878112,0.03111111111111111,0.03777777777777778,-0.04333333333333333,3.18000000000000016,0.68999999999999995,9.06000000000000050,-0.00000000000000000,0.00000000000000000,11.69534633600000006
2.00998830795288086,-52.06513428213608563,-10.43570835022454446,32.83755133103651502,0.10998810531874965,-0.00158375864159223,-0.00026118586529034,0.99393160739504249,-0.00333333333333333,0.01333333333333333,-0.04000000000000000,-1.97999999999999998,2.04000000000000004,9.50999999999999979,-0.00000000000000000,0.00000000000000000,11.68217219200000123
2.02003335952758789,-52.05516777260118033,-10.39140610023100741,32.82894544563457373,0.11006471844802264,-0.00151604998801325,-0.00029685174002939,0.99392322199676897,-0.00333333333333333,0.01333333333333333,-0.04000000000000000,-1.97999999999999998,2.04000000000000004,9.50999999999999979,-0.00000000000000000,0.00000000000000000,11.68217219200000123
2.03004789352416992,-52.00307050201032411,-10.43583738302762498,32.85917402567628187,0.11014317879660114,-0.00144929572788167,-0.00031270670702977,0.99391462506645367,-0.28222222222222221,-0.00000000000000000,-0.00555555555555556,-0.64000000000000001,1.73999999999999999,9.57000000000000028,-0.00000000000000000,0.00000000000000000,11.67887865600000019
2.04004740715026855,-51.93347445767395243,-10.50444154317852252,32.84443407278200056,0.11013262007338315,-0.00151338218685363,-0.00018868437633534,0.99391573086873863,-0.28222222222222221,-0.00000000000000000,-0.00555555555555556,-0.64000000000000001,1.73999999999999999,9.57000000000000028,-0.00000000000000000,0.00000000000000000,11.67887865600000019
2.05004167556762695,-51.94941723784717169,-10.49294650917158300,32.84189246166186393,0.11012450766346434,-0.00154541582286337,-0.00016367933335271,0.99391658488571821,-0.28222222222222221,-0.00000000000000000,-0.00555555555555556,-0.64000000000000001,1.73999999999999999,9.57000000000000028,-0.00000000000000000,0.00000000000000000,11.67887865600000019
2.05998802185058594,-51.95415730544964816,-10.46474648964812104,32.87684132133556858,0.11014227426576553,-0.00153410177164946,-0.00018946588908497,0.99391462915785278,-0.28222222222222221,-0.00000000000000000,-0.00555555555555556,-0.64000000000000001,1.73999999999999999,9.57000000000000028,-0.00000000000000000,0.00000000000000000,11.67887865600000019
2.07002758979797363,-51.98900708933560821,-10.45225220689176560,32.86119365712240636,0.11011376632215361,-0.00151138295814645,-0.00023033506513072,0.99391781407401503,-0.28222222222222221,-0.00000000000000000,-0.00555555555555556,-0.64000000000000001,1.73999999999999999,9.57000000000000028,-0.00000000000000000,0.00000000000000000,11.67887865600000019
2.08002734184265137,-52.05334253391723109,-10.43428212413741640,32.86639569222941049,0.11016172238900612,-0.00152530469474488,-0.00024037521210220,0.99391247632054336,-0.28222222222222221,-0.00000000000000000,-0.00555555555555556,-0.64000000000000001,1.73999999999999999,9.57000000000000028,-0.00000000000000000,0.00000000000000000,11.67887865600000019
2.09002494812011719,-52.02750422014954523,-10.51094111836113321,32.84644251129162029,0.11005097438489279,-0.00164290435898748,-0.00013859006328797,0.99392457696497194,0.00111111111111111,-0.00555555555555556,-0.00666666666666667,0.01000000000000000,2.06999999999999984,9.68999999999999950,-0.00000000000000000,0.00000000000000000,11.68875926399999976
2.10011577606201172,-52.05303474593051050,-10.45268812434242811,32.83804489274406535,0.11022227341636708,-0.00160146571898794,-0.00017218898815208,0.99390565754573768,0.00111111111111111,-0.00555555555555556,-0.00666666666666667,0.01000000000000000,2.06999999999999984,9.68999999999999950,-0.00000000000000000,0.00000000000000000,11.68875926399999976
2.10998749732971191,-52.02875409757081115,-10.43976772387024710,32.82712575001855981,0.11018461101532449,-0.00163944265219419,-0.00013177979072091,0.99390977777526324,0.00111111111111111,-0.00555555555555556,-0.00666666666666667,0.01000000000000000,2.06999999999999984,9.68999999999999950,-0.00000000000000000,0.00000000000000000,11.68875926399999976
2.12001800537109375,-52.00798773178664902,-10.44624768361750533,32.84309572452978188,0.11021329482132999,-0.00166912629509860,-0.00016874288895227,0.99390654248167165,0.00111111111111111,-0.00555555555555556,-0.00666666666666667,0.01000000000000000,2.06999999999999984,9.68999999999999950,-0.00000000000000000,0.00000000000000000,11.68875926399999976
2.13003516197204590,-52.04369997322144314,-10.43000382058244391,32.87939876705137010,0.11026402322004715,-0.00160277399096805,-0.00026101853470072,0.99390100521539826,0.00111111111111111,-0.00555555555555556,-0.00666666666666667,0.01000000000000000,2.06999999999999984,9.68999999999999950,-0.00000000000000000,0.00000000000000000,11.68875926399999976
2.14002871513366699,-51.94857584359039748,-10.47938545708063174,32.86432981430480993,0.11020373237010686,-0.00164777852791940,-0.00016051826064541,0.99390763978928598,-0.00111111111111111,0.00777777777777778,-0.00555555555555556,-0.34999999999999998,1.97999999999999998,9.64000000000000057,-0.00000000000000000,0.00000000000000000,11.69863987200000111
2.15011572837829590,-51.98951162264458503,-10.51383253355237635,32.84048576271726461,0.11016760587874111,-0.00160084050752808,-0.00007224497096889,0.99391173184809845,-0.00111111111111111,0.00777777777777778,-0.00555555555555556,-0.34999999999999998,1.97999999999999998,9.64000000000000057,-0.00000000000000000,0.00000000000000000,11.69863987200000111
2.16004657745361328,-51.98105257526239598,-10.44296491576392505,32.84722405684805580,0.11024951395496684,-0.00171071600869802,-0.00018695886410453,0.99390245153627277,-0.00111111111111111,0.00777777777777778,-0.00555555555555556,-0.34999999999999998,1.97999999999999998,9.64000000000000057,-0.00000000000000000,0.00000000000000000,11.69863987200000111
2.17001748085021973,-52.05176128582578343,-10.45647357959875734,32.87240260695824645,0.11022029805910703,-0.00161356381068334,-0.00021600443357815,0.99390584848348884,-0.00111111111111111,0.00777777777777778,-0.00555555555555556,-0.34999999999999998,1.97999999999999998,9.64000000000000057,-0.00000000000000000,0.00000000000000000,11.69863987200000111
2.18002271652221680,-52.06629878289577817,-10.49639319965386086,32.85614540212451828,0.11014562288156197,-0.00162962600762390,-0.00017387380151418,0.99391410888818799,-0.00111111111111111,0.00777777777777778,-0.00555555555555556,-0.34999999999999998,1.97999999999999998,9.64000000000000057,-0.00000000000000000,0.00000000000000000,11.69863987200000111
2.19001817703247070,-52.03627477326659800,-10.46768443978204743,32.85122313678224515,0.11018163123774667,-0.00170782760757671,-0.00014764085590681,0.99390999072593778,-0.00111111111111111,0.00777777777777778,-0.00555555555555556,-0.34999999999999998,1.97999999999999998,9.64000000000000057,-0.00000000000000000,0.00000000000000000,11.69863987200000111
2.20008635520935059,-52.02939518377720418,-10.51502841016201195,32.85144610434802814,0.11011693684375291,-0.00167796145601626,-0.00012771372262296,0.99391721403480648,-0.00111111111111111,0.00111111111111111,-0.00777777777777778,-0.13000000000000000,1.88999999999999990,9.60999999999999943,-9.50000000000000000,-9.50000000000000000,11.69534633600000006
2.20998764038085938,-51.99150954355416587,-10.46109548885565488,32.81217654238415804,0.11020525551584850,-0.00182109725925420,-0.00020314350205328,0.99390716065142526,-0.00111111111111111,0.00111111111111111,-0.00777777777777778,-0.13000000000000000,1.88999999999999990,9.60999999999999943,-9.50000000000000000,-9.50000000000000000,11.69534633600000006
2.22002720832824707,-51.89768945324198057,-10.45639049969503809,32.83402368208817990,0.11017756586708771,-0.00171382672992614,-0.00026917494308291,0.99391040558110366,-0.00111111111111111,0.00111111111111111,-0.00777777777777778,-0.13000000000000000,1.88999999999999990,9.60999999999999943,-9.50000000000000000,-9.50000000000000000,11.69534633600000006
2.23004722595214844,-51.75175359510890871,-10.52131145855475758,32.84612229817056317,0.11002461491127620,-0.00174208924175152,-0.00014003035887764,0.99392732613114509,-0.00111111111111111,0.00111111111111111,-0.00777777777777778,-0.13000000000000000,1.88999999999999990,9.60999999999999943,-9.50000000000000000,-9.50000000000000000,11.69534633600000006
2.24002623558044434,-51.56227279661060692,-10.60983315811827232,32.86195040948976498,0.10974198244698097,-0.00168477499338555,-0.00008493898497441,0.99395867701187868,-0.00111111111111111,0.00111111111111111,-0.00777777777777778,-0.13000000000000000,1.88999999999999990,9.60999999999999943,-9.50000000000000000,-9.50000000000000000,11.69534633600000006
2.25014925003051758,-51.31722966221335724,-10.70441705379333364,32.83693761160061086,0.10950961800047226,-0.00173981926580437,-0.00002217990816160,0.99398421320580499,0.00111111111111111,0.28444444444444444,-0.00333333333333333,-0.68999999999999995,1.84000000000000008,9.58000000000000007,-43.20000000000000284,-43.20000000000000284,11.65911744000000105
2.25998759269714355,-50.87453832398718845,-10.63698581009374777,32.69426528732911663,0.10978100055202701,-0.00195861999487022,-0.00013405910441510,0.99395386097829552,0.00111111111111111,0.28444444444444444,-0.00333333333333333,-0.68999999999999995,1.84000000000000008,9.58000000000000007,-43.20000000000000284,-43.20000000000000284,11.65911744000000105
2.27002716064453125,-50.26223220916741496,-10.75294814884142625,32.55380290287082801,0.10999858338471639,-0.00242946430122263,-0.00009115680547720,0.99392877061035345,0.00111111111111111,0.28444444444444444,-0.00333333333333333,-0.68999999999999995,1.84000000000000008,9.58000000000000007,-43.20000000000000284,-43.20000000000000284,11.65911744000000105
2.28001952171325684,-49.08835694785923920,-10.84448384395562925,32.54191981175643633,0.11087928071864192,-0.00344301558920180,-0.00025673384813798,0.99382788491705076,0.00111111111111111,0.28444444444444444,-0.00333333333333333,-0.68999999999999995,1.84000000000000008,9.58000000000000007,-43.20000000000000284,-43.20000000000000284,11.65911744000000105
2.29001212120056152,-47.64718759865741049,-11.17889560395300741,32.55928955046852735,0.11165302158647056,-0.00468365376371014,-0.00013897218220147,0.99373620586389311,0.00111111111111111,0.28444444444444444,-0.00333333333333333,-0.68999999999999995,1.84000000000000008,9.58000000000000007,-43.20000000000000284,-43.20000000000000284,11.65911744000000105
2.30011105537414551,-45.83155940284746066,-11.73630670989785330,32.53210153928730364,0.11218884829404177,-0.00598698661484519,0.00038485138262215,0.99366879300859101,0.00111111111111111,0.01777777777777778,0.04444444444444445,1.05000000000000004,1.78000000000000003,10.57000000000000028,-71.59999999999999432,-71.59999999999999432,11.66241097600000032
2.31007742881774902,-43.67124978938375790,-12.22328844180527341,32.50466365795545443,0.11261109108257548,-0.00725891313522858,0.00064328618736730,0.99361241766000741,0.00111111111111111,0.01777777777777778,0.04444444444444445,1.05000000000000004,1.78000000000000003,10.57000000000000028,-71.59999999999999432,-71.59999999999999432,11.66241097600000032
2.32012319564819336,-41.43080901279449080,-12.72705525719101338,32.42799734175723358,0.11305966506918849,-0.00846731355484094,0.00091187116462088,0.99355170234195200,0.00111111111111111,0.01777777777777778,0.04444444444444445,1.05000000000000004,1.78000000000000003,10.57000000000000028,-71.59999999999999432,-71.59999999999999432,11.66241097600000032
2.33015036582946777,-38.67685872569601457,-13.23996860922988539,32.30381282097489049,0.11387285692757097,-0.01047811249845574,0.00096495250588673,0.99343960585447266,0.00111111111111111,0.01777777777777778,0.04444444444444445,1.05000000000000004,1.78000000000000003,10.57000000000000028,-71.59999999999999432,-71.59999999999999432,11.66241097600000032
2.34012722969055176,-35.98127873424118661,-13.73464386268783244,32.16911996168251875,0.11406741148157050,-0.01165499293650406,0.00090802393233526,0.99340422903774539,0.00333333333333333,0.22555555555555556,-0.14666666666666667,-0.88000000000000000,1.62000000000000011,9.56000000000000050,-89.59999999999999432,-89.59999999999999432,11.64923683199999971
2.35017800331115723,-32.37908408954971407,-14.71463698036235890,32.10807978174995725,0.11502983383476717,-0.01382681529119499,0.00160840080304246,0.99326450130551680,0.00333333333333333,0.22555555555555556,-0.14666666666666667,-0.88000000000000000,1.62000000000000011,9.56000000000000050,-89.59999999999999432,-89.59999999999999432,11.64923683199999971
2.35998916625976562,-28.30962724711228873,-15.62297295417411824,32.21457995962021670,0.11567670779107504,-0.01610202522674415,0.00171469755487036,0.99315491433638603,0.00333333333333333,0.22555555555555556,-0.14666666666666667,-0.88000000000000000,1.62000000000000011,9.56000000000000050,-89.59999999999999432,-89.59999999999999432,11.64923683199999971
2.37004542350769043,-24.41222562165027909,-16.60098856763527664,31.98944796451786488,0.11622695325942545,-0.01818641338623250,0.00199815015953516,0.99305415617685011,0.00333333333333333,0.22555555555555556,-0.14666666666666667,-0.88000000000000000,1.62000000000000011,9.56000000000000050,-89.59999999999999432,-89.59999999999999432,11.64923683199999971
2.38001894950866699,-19.90415679183491093,-17.73438250946710681,31.82245408941669851,0.11710556196201752,-0.02040963766074233,0.00237175930102359,0.99290689835750490,0.00333333333333333,0.22555555555555556,-0.14666666666666667,-0.88000000000000000,1.62000000000000011,9.56000000000000050,-89.59999999999999432,-89.59999999999999432,11.64923683199999971
2.39002227783203125,-14.70514303003081125,-18.91901316373387587,31.92443973665379531,0.11776005421200123,-0.02283127099815032,0.00258859114489533,0.99277620937071553,-0.23999999999999999,0.48222222222222222,-0.10777777777777778,-4.29999999999999982,2.16999999999999993,8.99000000000000021,-90.00000000000000000,-90.00000000000000000,11.57019196799999960
2.40017080307006836,-9.98411559542474869,-19.96827943869608291,31.76936607835019188,0.11839149949701185,-0.02462836958847374,0.00240478077617447,0.99265860863022315,-0.23999999999999999,0.48222222222222222,-0.10777777777777778,-4.29999999999999982,2.16999999999999993,8.99000000000000021,-90.00000000000000000,-90.00000000000000000,11.57019196799999960
2.41007041931152344,-4.55759810784527275,-21.33030203624660004,31.55431016411839096,0.11915249603981888,-0.02629939725371834,0.00309327891836382,0.99252277355086727,-0.23999999999999999,0.48222222222222222,-0.10777777777777778,-4.29999999999999982,2.16999999999999993,8.99000000000000021,-90.00000000000000000,-90.00000000000000000,11.57019196799999960
2.42015910148620605,0.45009395195361002,-22.51716979188096346,31.59197075968962665,0.11962739286920422,-0.02749553550398313,0.00322689257203672,0.99243280355246311,-0.23999999999999999,0.48222222222222222,-0.10777777777777778,-4.29999999999999982,2.16999999999999993,8.99000000000000021,-90.00000000000000000,-90.00000000000000000,11.57019196799999960
2.43012022972106934,6.21690401332031239,-23.97543547889171123,31.55052544067733677,0.11975394418616826,-0.02870953957611290,0.00374428255526509,0.99238134582293280,-0.23999999999999999,0.48222222222222222,-0.10777777777777778,-4.29999999999999982,2.16999999999999993,8.99000000000000021,-90.00000000000000000,-90.00000000000000000,11.57019196799999960
2.44015550613403320,12.42561984307433498,-25.43934699545665978,31.47314262124901063,0.11962519181396691,-0.02932901224044633,0.00404933567283175,0.99237756192141180,-0.23999999999999999,0.48222222222222222,-0.10777777777777778,-4.29999999999999982,2.16999999999999993,8.99000000000000021,-90.00000000000000000,-90.00000000000000000,11.57019196799999960
2.45012021064758301,17.84158933471565689,-26.59774935123349948,31.47962472992849214,0.11994180142718783,-0.02888197437905020,0.00359735061646678,0.99235419830568383,0.03555555555555556,0.42111111111111110,-0.15666666666666668,-2.97999999999999998,1.72999999999999998,11.96000000000000085,-90.00000000000000000,-90.00000000000000000,11.58007257600000095
2.46010780334472656,23.67945225897486594,-28.21593693368695810,31.60564091096627592,0.11996131824133290,-0.02794296125699700,0.00400920742347991,0.99237714569503455,0.03555555555555556,0.42111111111111110,-0.15666666666666668,-2.97999999999999998,1.72999999999999998,11.96000000000000085,-90.00000000000000000,-90.00000000000000000,11.58007257600000095
2.47017359733581543,28.98648682867760940,-29.57052404503178877,31.43021679283266678,0.12003913446370586,-0.02615678366826524,0.00387088043759859,0.99241697141371832,0.03555555555555556,0.42111111111111110,-0.15666666666666668,-2.97999999999999998,1.72999999999999998,11.96000000000000085,-90.00000000000000000,-90.00000000000000000,11.58007257600000095
2.48011469841003418,34.74363979996644503,-31.03156712679779972,31.69157448447734282,0.11987055161053664,-0.02299709785253148,0.00344975075260599,0.99251714522555934,0.03555555555555556,0.42111111111111110,-0.15666666666666668,-2.97999999999999998,1.72999999999999998,11.96000000000000085,-90.00000000000000000,-90.00000000000000000,11.58007257600000095
2.49015736579895020,40.74036696493559617,-32.45252059587721050,31.73188806957396579,0.11997827123214232,-0.01916173317320107,0.00320059701986475,0.99258641870249964,0.10000000000000001,0.08000000000000000,-0.02777777777777778,-2.93999999999999995,1.72999999999999998,7.92999999999999972,-90.00000000000000000,-90.00000000000000000,11.60971439999999966
2.50015735626220703,46.16861162183541722,-33.91401613015084848,31.68542791953978721,0.12001385770361107,-0.01541441335969959,0.00310224460638397,0.99264769475291115,0.10000000000000001,0.08000000000000000,-0.02777777777777778,-2.93999999999999995,1.72999999999999998,7.92999999999999972,-90.00000000000000000,-90.00000000000000000,11.60971439999999966
2.51002073287963867,52.05865690799299017,-34.99061144831708248,31.85357727297924768,0.12041068070561030,-0.00998007316743733,0.00206888746097827,0.99267184195798375,0.10000000000000001,0.08000000000000000,-0.02777777777777778,-2.93999999999999995,1.72999999999999998,7.92999999999999972,-90.00000000000000000,-90.00000000000000000,11.60971439999999966
2.52016019821166992,57.29019258525310221,-36.43964739590432345,32.14543281026799804,0.12045174835657199,-0.00429106226658262,0.00175883704751728,0.99270835072276198,0.10000000000000001,0.08000000000000000,-0.02777777777777778,-2.93999999999999995,1.72999999999999998,7.92999999999999972,-90.00000000000000000,-90.00000000000000000,11.60971439999999966
2.53011727333068848,64.47516442717461871,-38.23836649584467295,32.49450377071315899,0.12082890128326962,-0.00256818451871174,0.00218113051362091,0.99266763003164693,0.10000000000000001,0.08000000000000000,-0.02777777777777778,-2.93999999999999995,1.72999999999999998,7.92999999999999972,-90.00000000000000000,-90.00000000000000000,11.60971439999999966
2.54012489318847656,71.73807202131096972,-39.97168576602078360,32.20928467512348448,0.12068516018684637,-0.00295388167680128,0.00184808424709244,0.99268471897089439,-0.02222222222222222,-0.82444444444444442,-0.02555555555555556,-3.60000000000000009,-0.25000000000000000,11.81000000000000050,-90.00000000000000000,-90.00000000000000000,11.61630147199999996
2.55012154579162598,78.12764656672136709,-41.41478654987052010,32.50164682600579624,0.12054434862446893,-0.00182899428554005,0.00165618821856642,0.99270487650419015,-0.02222222222222222,-0.82444444444444442,-0.02555555555555556,-3.60000000000000009,-0.25000000000000000,11.81000000000000050,-90.00000000000000000,-90.00000000000000000,11.61630147199999996
2.56007266044616699,85.13676810369344139,-43.14047469863798057,32.28276063632706183,0.12047024162423545,-0.00200502191289886,0.00180716827140690,0.99271326923385483,-0.02222222222222222,-0.82444444444444442,-0.02555555555555556,-3.60000000000000009,-0.25000000000000000,11.81000000000000050,-90.00000000000000000,-90.00000000000000000,11.61630147199999996
2.57002305984497070,91.02290957608340705,-44.30506872085778269,32.04559815401363920,0.12011676880221342,-0.00153776922973882,0.00099631021859308,0.99275807953613249,-0.02222222222222222,-0.82444444444444442,-0.02555555555555556,-3.60000000000000009,-0.25000000000000000,11.81000000000000050,-90.00000000000000000,-90.00000000000000000,11.61630147199999996
2.58013725280761719,97.57839614371728487,-45.88180378970096029,32.01604659567792766,0.11969167967456940,-0.00130540070758534,0.00138232441034161,0.99280929030952458,-0.02222222222222222,-0.82444444444444442,-0.02555555555555556,-3.60000000000000009,-0.25000000000000000,11.81000000000000050,-90.00000000000000000,-90.00000000000000000,11.61630147199999996
2.59003782272338867,103.83355895036737593,-47.43110456675278641,32.10807340609826355,0.11949255114257092,-0.00067126547303881,0.00128330970354724,0.99283404088514016,-0.26000000000000001,0.30222222222222223,-0.28111111111111109,-0.48999999999999999,2.68000000000000016,13.43999999999999950,-90.00000000000000000,-90.00000000000000000,11.67558512000000093
2.60014247894287109,109.52070034095227413,-48.62914926200746635,32.08434716926787189,0.11978581476905402,-0.00145329950256471,0.00106682244597703,0.99279812066227635,-0.26000000000000001,0.30222222222222223,-0.28111111111111109,-0.48999999999999999,2.68000000000000016,13.43999999999999950,-90.00000000000000000,-90.00000000000000000,11.67558512000000093
2.61004018783569336,115.73923522308547263,-50.19697500123339751,31.98034706290858864,0.11963940713588755,-0.00150088036063803,0.00125425158110979,0.99281548460491476,-0.26000000000000001,0.30222222222222223,-0.28111111111111109,-0.48999999999999999,2.68000000000000016,13.43999999999999950,-90.00000000000000000,-90.00000000000000000,11.67558512000000093
2.62001967430114746,121.33635511385951133,-51.42125523252530428,31.96139812806198321,0.12007492859630767,-0.00162754894676533,0.00079492719922880,0.99276317956387050,-0.26000000000000001,0.30222222222222223,-0.28111111111111109,-0.48999999999999999,2.68000000000000016,13.43999999999999950,-90.00000000000000000,-90.00000000000000000,11.67558512000000093
2.63002276420593262,127.65301379185707731,-53.10675793255708754,32.06893594520425239,0.12018017381734580,-0.00220619649992254,0.00077249708677502,0.99274934488343591,-0.26000000000000001,0.30222222222222223,-0.28111111111111109,-0.48999999999999999,2.68000000000000016,13.43999999999999950,-90.00000000000000000,-90.00000000000000000,11.67558512000000093
2.64003014564514160,133.61538883680989898,-54.66695285970011042,32.03792929579822868,0.11977081866829065,-0.00189644472395014,0.00075775765734584,0.99279946630539351,-0.00111111111111111,0.06888888888888889,-0.01555555555555556,-1.83000000000000007,3.47999999999999998,11.30000000000000071,-90.00000000000000000,-90.00000000000000000,11.65253036800000075
2.65011715888977051,139.32179499376820786,-56.08265353535649211,31.97827047685822777,0.11974923655883618,-0.00242140013763222,0.00082964300012894,0.99280087069736556,-0.00111111111111111,0.06888888888888889,-0.01555555555555556,-1.83000000000000007,3.47999999999999998,11.30000000000000071,-90.00000000000000000,-90.00000000000000000,11.65253036800000075
2.66002345085144043,145.35779631513267418,-57.24578652600369111,31.91823216478120528,0.11964647533405406,-0.00220660146340669,0.00020581650131607,0.99281408606530430,-0.00111111111111111,0.06888888888888889,-0.01555555555555556,-1.83000000000000007,3.47999999999999998,11.30000000000000071,-90.00000000000000000,-90.00000000000000000,11.65253036800000075
2.67002248764038086,150.89897572073871856,-58.72427245617863178,32.05596612302044690,0.11973841064666220,-0.00218764052277719,0.00037997969999898,0.99280299297503138,-0.00111111111111111,0.06888888888888889,-0.01555555555555556,-1.83000000000000007,3.47999999999999998,11.30000000000000071,-90.00000000000000000,-90.00000000000000000,11.65253036800000075
2.68001914024353027,157.14053097975912010,-60.29439160936637876,31.82876942776084306,0.11959541970889806,-0.00205899460878304,0.00057373940428789,0.99282041021976863,-0.00111111111111111,0.06888888888888889,-0.01555555555555556,-1.83000000000000007,3.47999999999999998,11.30000000000000071,-90.00000000000000000,-90.00000000000000000,11.65253036800000075
2.69002151489257812,163.52789076849884964,-61.69993321690187571,32.02947960239688285,0.11980312017936823,-0.00203071462182951,-0.00002275843785458,0.99279559229252390,-0.00111111111111111,0.06888888888888889,-0.01555555555555556,-1.83000000000000007,3.47999999999999998,11.30000000000000071,-90.00000000000000000,-90.00000000000000000,11.65253036800000075
2.70015454292297363,169.39827562613015743,-63.42353631305579142,31.97062253196044423,0.11988878167794825,-0.00221873450825103,0.00027640248897639,0.99278481094677284,-0.00111111111111111,0.06888888888888889,-0.01555555555555556,-1.83000000000000007,3.47999999999999998,11.30000000000000071,-90.00000000000000000,-90.00000000000000000,11.65253036800000075
2.71002364158630371,175.72242687499291947,-64.71569597786570682,31.93454167047016412,0.11988768380033919,-0.00199564012267951,-0.00008158615995730,0.99278545216838798,-0.03000000000000000,0.07000000000000001,0.02000000000000000,1.37999999999999989,1.52000000000000002,1.66999999999999993,-90.00000000000000000,-90.00000000000000000,11.63935622400000014
2.72002768516540527,181.36462308455986658,-66.20576440354982140,31.99031923538423072,0.11984402181127556,-0.00157099366713002,-0.00004457910658646,0.99279148889769209,-0.03000000000000000,0.07000000000000001,0.02000000000000000,1.37999999999999989,1.52000000000000002,1.66999999999999993,-90.00000000000000000,-90.00000000000000000,11.63935622400000014
2.73003339767456055,187.98262117822324058,-67.82459213952374455,31.81553196040769294,0.12005274364824836,-0.00228746573760912,-0.00001970994056627,0.99276487944253078,-0.03000000000000000,0.07000000000000001,0.02000000000000000,1.37999999999999989,1.52000000000000002,1.66999999999999993,-90.00000000000000000,-90.00000000000000000,11.63935622400000014
2.74002242088317871,194.62577975739245062,-69.49586205974316044,31.95467501192769433,0.12023516988487430,-0.00330027385506480,0.00021732737049371,0.99273992812017153,-0.05444444444444444,-0.05333333333333334,-0.00444444444444444,1.62999999999999989,1.76000000000000001,8.50000000000000000,-90.00000000000000000,-90.00000000000000000,11.62618208000000131
2.75007581710815430,200.17696497553450286,-70.84402701034979088,32.04669229484404269,0.12035769369314847,-0.00292459616939259,-0.00000134219237128,0.99272628267026142,-0.05444444444444444,-0.05333333333333334,-0.00444444444444444,1.62999999999999989,1.76000000000000001,8.50000000000000000,-90.00000000000000000,-90.00000000000000000,11.62618208000000131
2.76003050804138184,206.49880991291539090,-72.34793831726399560,31.92013733097913430,0.12085213483082631,-0.00325225777674292,-0.00013020646045964,0.99266518392279091,-0.05444444444444444,-0.05333333333333334,-0.00444444444444444,1.62999999999999989,1.76000000000000001,8.50000000000000000,-90.00000000000000000,-90.00000000000000000,11.62618208000000131
2.77003693580627441,212.07283936265727675,-73.95089459574415969,32.06562967804571684,0.12084153651767514,-0.00288088924313977,0.00053141803833776,0.99266748769367985,-0.05444444444444444,-0.05333333333333334,-0.00444444444444444,1.62999999999999989,1.76000000000000001,8.50000000000000000,-90.00000000000000000,-90.00000000000000000,11.62618208000000131
2.78003358840942383,218.55561320586431862,-75.36157253335221640,32.20682557683181102,0.12133916276148232,-0.00310807846305814,0.00027317332839714,0.99260620228011209,-0.05444444444444444,-0.05333333333333334,-0.00444444444444444,1.62999999999999989,1.76000000000000001,8.50000000000000000,-90.00000000000000000,-90.00000000000000000,11.62618208000000131
2.79005026817321777,224.79742473339447884,-76.80400408706786664,31.90500590736469277,0.12119111951868736,-0.00249843396906074,0.00002232596782948,0.99262604735069271,0.27111111111111114,-0.07444444444444444,-0.01777777777777778,1.05000000000000004,0.07000000000000001,14.25999999999999979,-90.00000000000000000,-90.00000000000000000,11.62288854400000027
2.80012059211730957,230.44539002110130355,-78.31827083990361871,32.02759811250884781,0.12111023218582735,-0.00230031852464903,0.00002075627894800,0.99263639856885866,0.27111111111111114,-0.07444444444444444,-0.01777777777777778,1.05000000000000004,0.07000000000000001,14.25999999999999979,-90.00000000000000000,-90.00000000000000000,11.62288854400000027
2.81001925468444824,236.87039895865268591,-79.94974768723764669,32.06470761158836780,0.12160828973703228,-0.00244567137806740,0.00042856567873526,0.99257506461235245,0.27111111111111114,-0.07444444444444444,-0.01777777777777778,1.05000000000000004,0.07000000000000001,14.25999999999999979,-90.00000000000000000,-90.00000000000000000,11.62288854400000027
2.82002282142639160,242.65725368720632105,-81.49341240160175914,32.14156940961571962,0.12189619107512425,-0.00310497738008262,0.00035262108713982,0.99253793548418934,0.27111111111111114,-0.07444444444444444,-0.01777777777777778,1.05000000000000004,0.07000000000000001,14.25999999999999979,-90.00000000000000000,-90.00000000000000000,11.62288854400000027
2.83006501197814941,248.94762890043693915,-82.75164580145973048,32.07535018111046554,0.12191290970385454,-0.00265324738882656,-0.00005595743880474,0.99253725350467781,0.27111111111111114,-0.07444444444444444,-0.01777777777777778,1.05000000000000004,0.07000000000000001,14.25999999999999979,-90.00000000000000000,-90.00000000000000000,11.62288854400000027
2.84002900123596191,255.24231772055009060,-84.61130782136721962,32.24283199466757566,0.12184292725056681,-0.00216641592032288,-0.00011095883072558,0.99254702428106789,-0.03000000000000000,0.05333333333333334,-0.05666666666666666,2.25000000000000000,1.17999999999999994,8.33000000000000007,-90.00000000000000000,-90.00000000000000000,11.63276915199999983
2.85007071495056152,261.08746809262618171,-85.93715710779248695,32.09558959421662649,0.12208396794730124,-0.00283762521893366,-0.00024482721362778,0.99251568890017727,-0.03000000000000000,0.05333333333333334,-0.05666666666666666,2.25000000000000000,1.17999999999999994,8.33000000000000007,-90.00000000000000000,-90.00000000000000000,11.63276915199999983
2.86003351211547852,267.67714491507138064,-87.55256255103942920,32.19746631370774281,0.12221587130742659,-0.00281322196777675,-0.00012950884115397,0.99249954650377015,-0.03000000000000000,0.05333333333333334,-0.05666666666666666,2.25000000000000000,1.17999999999999994,8.33000000000000007,-90.00000000000000000,-90.00000000000000000,11.63276915199999983
2.87003064155578613,273.29675681767713513,-88.69455049865457852,32.04770789620115323,0.12228380988759112,-0.00238940044758240,-0.00079468450776108,0.99249197935369426,-0.03000000000000000,0.05333333333333334,-0.05666666666666666,2.25000000000000000,1.17999999999999994,8.33000000000000007,-90.00000000000000000,-90.00000000000000000,11.63276915199999983
2.88002157211303711,280.05144452040241276,-90.33755253087694825,32.06862322768505180,0.12254074932651936,-0.00345190194077764,-0.00078515769746605,0.99245716917904547,-0.03000000000000000,0.05333333333333334,-0.05666666666666666,2.25000000000000000,1.17999999999999994,8.33000000000000007,-90.00000000000000000,-90.00000000000000000,11.63276915199999983
2.88998985290527344,285.78241857079484589,-91.96587474788337602,32.48641983537331868,0.12266370027405613,-0.00188938016502555,-0.00034966676593240,0.99244643412671241,-0.05333333333333334,-0.09111111111111111,-0.02000000000000000,-3.70000000000000018,1.67999999999999994,11.07000000000000028,-90.00000000000000000,-90.00000000000000000,11.62618208000000131
2.90011954307556152,291.59345902377623361,-93.31391235932854045,32.30302664385389733,0.12321309645922569,-0.00242022746599717,-0.00049708712518497,0.99237716028954392,-0.05333333333333334,-0.09111111111111111,-0.02000000000000000,-3.70000000000000018,1.67999999999999994,11.07000000000000028,-90.00000000000000000,-90.00000000000000000,11.62618208000000131
2.91002225875854492,298.19135554077371353,-94.95646054551788495,32.06869048087200014,0.12343821038941555,-0.00297101528252597,-0.00084812662208613,0.99234745022359683,-0.05333333333333334,-0.09111111111111111,-0.02000000000000000,-3.70000000000000018,1.67999999999999994,11.07000000000000028,-90.00000000000000000,-90.00000000000000000,11.62618208000000131
2.92002224922180176,303.81127438186564405,-96.53850794047372119,32.24598467439256666,0.12424670446603750,-0.00309313106228436,-0.00029034448398018,0.99224649390644681,-0.05333333333333334,-0.09111111111111111,-0.02000000000000000,-3.70000000000000018,1.67999999999999994,11.07000000000000028,-90.00000000000000000,-90.00000000000000000,11.62618208000000131
2.93005442619323730,310.24156649125001195,-98.11773824514328624,32.00933160241499564,0.12418843599720665,-0.00280429098535149,-0.00069134845695712,0.99225444839211896,-0.05333333333333334,-0.09111111111111111,-0.02000000000000000,-3.70000000000000018,1.67999999999999994,11.07000000000000028,-90.00000000000000000,-90.00000000000000000,11.62618208000000131
2.94002532958984375,316.65426601767563852,-99.88952346194294307,32.13278769973292981,0.12415121260815191,-0.00282007473176905,-0.00021597776127688,0.99225927908991607,-0.00222222222222222,-0.08222222222222222,-0.04777777777777778,1.22999999999999998,0.76000000000000001,17.89999999999999858,-90.00000000000000000,-90.00000000000000000,11.64264976000000118
2.95012974739074707,322.33767366882869965,-101.37965078371212257,32.10122468442504129,0.12441712278327537,-0.00237353027346217,-0.00016595475871202,0.99222715059173139,-0.00222222222222222,-0.08222222222222222,-0.04777777777777778,1.22999999999999998,0.76000000000000001,17.89999999999999858,-90.00000000000000000,-90.00000000000000000,11.64264976000000118
2.96001958847045898,328.72230453901460123,-102.94411662729010004,32.12873696698492409,0.12479651334315262,-0.00250858369907192,-0.00032800245581037,0.99217913185049522,-0.00222222222222222,-0.08222222222222222,-0.04777777777777778,1.22999999999999998,0.76000000000000001,17.89999999999999858,-90.00000000000000000,-90.00000000000000000,11.64264976000000118
2.97002673149108887,334.51500633855727074,-104.20018502557184092,32.04864855646361832,0.12504132949473903,-0.00223461956073745,-0.00004218828996259,0.99214901633461916,-0.00222222222222222,-0.08222222222222222,-0.04777777777777778,1.22999999999999998,0.76000000000000001,17.89999999999999858,-90.00000000000000000,-90.00000000000000000,11.64264976000000118
2.98002219200134277,340.82961644635958010,-105.88917045539812989,32.11374154268242620,0.12514688108789321,-0.00230467857795464,-0.00041535224919727,0.99213546156416221,-0.00222222222222222,-0.08222222222222222,-0.04777777777777778,1.22999999999999998,0.76000000000000001,17.89999999999999858,-90.00000000000000000,-90.00000000000000000,11.64264976000000118
2.99002170562744141,347.24003200540988701,-107.73453014759392943,32.14586172012084120,0.12523990188423223,-0.00238663296608947,0.00009093941228780,0.99212361260537696,-0.01333333333333333,0.01555555555555556,-0.03666666666666667,0.76000000000000001,2.20000000000000018,11.57000000000000028,-82.09999999999999432,-78.40000000000000568,11.63606268800000088
3.00016736984252930,352.86375317617785186,-109.02958626379751195,32.09003628266695074,0.12555965179782122,-0.00222901125369293,-0.00027002732789660,0.99208353097634039,-0.01333333333333333,0.01555555555555556,-0.03666666666666667,0.76000000000000001,2.20000000000000018,11.57000000000000028,-82.09999999999999432,-78.40000000000000568,11.63606268800000088
3.01003432273864746,359.31266192653112057,-110.81325415253695610,32.24679676059628974,0.12585301818858058,-0.00191326789234151,0.00001470165453086,0.99204705382490099,-0.01333333333333333,0.01555555555555556,-0.03666666666666667,0.76000000000000001,2.20000000000000018,11.57000000000000028,-82.09999999999999432,-78.40000000000000568,11.63606268800000088
3.02002286911010742,365.18390821535302848,-112.50160495703464392,31.91867855459451775,0.12622673523905978,-0.00282609000407557,0.00056858274261677,0.99199722844363158,-0.01333333333333333,0.01555555555555556,-0.03666666666666667,0.76000000000000001,2.20000000000000018,11.57000000000000028,-82.09999999999999432,-78.40000000000000568,11.63606268800000088
3.03002119064331055,371.40114239857848588,-113.87549129907802126,32.02569672670698253,0.12660131722078571,-0.00279837053650011,0.00009977503315079,0.99194972939421189,-0.01333333333333333,0.01555555555555556,-0.03666666666666667,0.76000000000000001,2.20000000000000018,11.57000000000000028,-82.09999999999999432,-78.40000000000000568,11.63606268800000088
3.04002356529235840,377.78979661316924421,-115.35924931321619624,32.06082057687023479,0.12725307092472374,-0.00318176945552279,0.00006223249238900,0.99186517652878381,-0.01333333333333333,0.01555555555555556,-0.03666666666666667,0.76000000000000001,2.20000000000000018,11.57000000000000028,-82.09999999999999432,-78.40000000000000568,11.63606268800000088
3.05010843276977539,383.21634503076433020,-116.87541268816168838,32.13504962558909028,0.12763021053559934,-0.00305834313511122,0.00006663274458076,0.99181710584965654,0.01777777777777778,-0.02000000000000000,-0.05555555555555555,0.66000000000000003,2.12000000000000011,5.48000000000000043,-2.00000000000000000,-2.00000000000000000,11.65582390400000001
3.06003141403198242,389.19365521496825977,-118.59032549721187877,32.31469718261980262,0.12809380574536430,-0.00289786488939146,0.00048688180401258,0.99175770340081382,0.01777777777777778,-0.02000000000000000,-0.05555555555555555,0.66000000000000003,2.12000000000000011,5.48000000000000043,-2.00000000000000000,-2.00000000000000000,11.65582390400000001
3.07002258300781250,394.36544011091905304,-119.94414201556530486,32.27722745486399702,0.12842033032488517,-0.00296632669894704,0.00053137874177987,0.99171525011052863,0.01777777777777778,-0.02000000000000000,-0.05555555555555555,0.66000000000000003,2.12000000000000011,5.48000000000000043,-2.00000000000000000,-2.00000000000000000,11.65582390400000001
3.08001923561096191,399.83318311767430941,-121.01325919108666085,32.14702928597579756,0.12886426433026132,-0.00262672784836785,-0.00005533013989526,0.99165876117644824,0.01777777777777778,-0.02000000000000000,-0.05555555555555555,0.66000000000000003,2.12000000000000011,5.48000000000000043,-2.00000000000000000,-2.00000000000000000,11.65582390400000001
3.08998775482177734,404.95377057100057527,-122.42927936296420910,31.99750316363759239,0.12866634500808219,-0.00239568528453801,-0.00000864239415443,0.99168504691741310,0.03444444444444444,-0.23111111111111110,-0.07111111111111111,1.70999999999999996,2.62000000000000011,11.28999999999999915,-0.00000000000000000,0.00000000000000000,11.93248092800000038
3.10009026527404785,409.28579624654076952,-123.44503869700433540,32.05851503732689167,0.12910944764072388,-0.00283265867475650,-0.00024416335354425,0.99162627383454938,0.03444444444444444,-0.23111111111111110,-0.07111111111111111,1.70999999999999996,2.62000000000000011,11.28999999999999915,-0.00000000000000000,0.00000000000000000,11.93248092800000038
3.10998654365539551,413.54452906706029580,-124.92336962959730329,32.15894238229783753,0.12856956974699221,-0.00246804502567904,0.00027737724254065,0.99169738204287161,0.03444444444444444,-0.23111111111111110,-0.07111111111111111,1.70999999999999996,2.62000000000000011,11.28999999999999915,-0.00000000000000000,0.00000000000000000,11.93248092800000038
3.12002944946289062,417.29608628133524917,-125.82146499290449526,31.77281722366410577,0.12857099559584934,-0.00313669321137510,-0.00005208350590664,0.99169534512091473,0.03444444444444444,-0.23111111111111110,-0.07111111111111111,1.70999999999999996,2.62000000000000011,11.28999999999999915,-0.00000000000000000,0.00000000000000000,11.93248092800000038
3.13000726699829102,421.21008561265563230,-126.97358345264042612,31.84819548251136823,0.12873190878171006,-0.00344683386377984,0.00012213352786119,0.99167343419148746,0.03444444444444444,-0.23111111111111110,-0.07111111111111111,1.70999999999999996,2.62000000000000011,11.28999999999999915,-0.00000000000000000,0.00000000000000000,11.93248092800000038
3.13998723030090332,424.65350806266314976,-128.10912173890540089,32.00764161095928984,0.12843925964615283,-0.00299021027767791,0.00046081601710884,0.99171276228182292,-0.01222222222222222,-0.10555555555555556,0.00444444444444444,6.58000000000000007,2.16999999999999993,6.98000000000000043,-0.00000000000000000,0.00000000000000000,11.69534633600000006
3.15002107620239258,427.62064048371149738,-128.88153536266941046,31.83080695370973601,0.12860879680160367,-0.00343111763994851,0.00037975252641584,0.99168939724341520,-0.01222222222222222,-0.10555555555555556,0.00444444444444444,6.58000000000000007,2.16999999999999993,6.98000000000000043,-0.00000000000000000,0.00000000000000000,11.69534633600000006
3.15998768806457520,430.66625491199357612,-129.60499732393566319,31.98573436921028090,0.12882880261123514,-0.00311676702620727,0.00014064165608671,0.99166194118811546,-0.01222222222222222,-0.10555555555555556,0.00444444444444444,6.58000000000000007,2.16999999999999993,6.98000000000000043,-0.00000000000000000,0.00000000000000000,11.69534633600000006
3.17001771926879883,433.05721568110726594,-130.35685976099441064,31.93053220209429455,0.12913205431120880,-0.00349245077938678,0.00030635364536140,0.99162120867010717,-0.01222222222222222,-0.10555555555555556,0.00444444444444444,6.58000000000000007,2.16999999999999993,6.98000000000000043,-0.00000000000000000,0.00000000000000000,11.69534633600000006
3.18001651763916016,435.38894925175355866,-131.21411627501410635,31.85650125270992206,0.12976634474412943,-0.00357256322930239,0.00091025900207577,0.99153774713435028,-0.01222222222222222,-0.10555555555555556,0.00444444444444444,6.58000000000000007,2.16999999999999993,6.98000000000000043,-0.00000000000000000,0.00000000000000000,11.69534633600000006
3.18998813629150391,437.36775375995699733,-131.66248725861009916,32.04407425896327055,0.13027351734541087,-0.00317170474622264,0.00079296017981723,0.99147270369970952,-0.27666666666666667,0.19000000000000000,-0.03444444444444444,6.79999999999999982,2.14999999999999991,8.52999999999999936,-0.00000000000000000,0.00000000000000000,11.66570451199999958
3.20007896423339844,439.01282031253521154,-131.87358258701638647,31.74339143394169227,0.13093540837201170,-0.00348065898361803,0.00047680849857406,0.99138467634977789,-0.27666666666666667,0.19000000000000000,-0.03444444444444444,6.79999999999999982,2.14999999999999991,8.52999999999999936,-0.00000000000000000,0.00000000000000000,11.66570451199999958
3.20998787879943848,440.55048074287498139,-132.24191888729794186,31.92980812344258368,0.13111438267302222,-0.00294883252591482,0.00032376664081384,0.99136280857119186,-0.27666666666666667,0.19000000000000000,-0.03444444444444444,6.79999999999999982,2.14999999999999991,8.52999999999999936,-0.00000000000000000,0.00000000000000000,11.66570451199999958
3.22002887725830078,441.60279652237750270,-132.45005806017783812,31.84672348342628467,0.13154893031570472,-0.00291813310268228,0.00012202423871765,0.99130537602803004,-0.27666666666666667,0.19000000000000000,-0.03444444444444444,6.79999999999999982,2.14999999999999991,8.52999999999999936,-0.00000000000000000,0.00000000000000000,11.66570451199999958
3.23001575469970703,442.55199343695238667,-132.72886019917507383,31.69704507727583476,0.13217262283862408,-0.00305533030787537,0.00032693232551479,0.99122195084851050,-0.27666666666666667,0.19000000000000000,-0.03444444444444444,6.79999999999999982,2.14999999999999991,8.52999999999999936,-0.00000000000000000,0.00000000000000000,11.66570451199999958
3.23998713493347168,443.34713352843755274,-132.78502408662538414,31.80253760882995451,0.13301904520913027,-0.00304691275483368,0.00038977785597568,0.99110872158786834,-0.27666666666666667,0.19000000000000000,-0.03444444444444444,6.79999999999999982,2.14999999999999991,8.52999999999999936,-0.00000000000000000,0.00000000000000000,11.66570451199999958
3.25007081031799316,443.56595273912051880,-132.88201235169626102,31.80011560635495371,0.13316904644847166,-0.00286403434610174,0.00031569110903734,0.99108914973093842,-0.27555555555555555,0.20444444444444446,-0.11000000000000000,3.02000000000000002,1.94999999999999996,11.25999999999999979,-0.00000000000000000,0.00000000000000000,11.69534633600000006
3.25998687744140625,443.81588584676927667,-132.94510775366680377,31.82099315276083473,0.13342893597251215,-0.00292182098913131,0.00036795674311300,0.99105400792044684,-0.27555555555555555,0.20444444444444446,-0.11000000000000000,3.02000000000000002,1.94999999999999996,11.25999999999999979,-0.00000000000000000,0.00000000000000000,11.69534633600000006
3.27002763748168945,443.79348619883649008,-132.98163591297580410,31.76469453775603213,0.13374426062108252,-0.00290233231427985,0.00053980104777420,0.99101148219023627,-0.27555555555555555,0.20444444444444446,-0.11000000000000000,3.02000000000000002,1.94999999999999996,11.25999999999999979,-0.00000000000000000,0.00000000000000000,11.69534633600000006
3.28003501892089844,443.63944421797981477,-132.94114339567133243,31.73008754797150388,0.13380279556173735,-0.00296970623188182,0.00047669279398048,0.99100341346977361,0.00000000000000000,-0.08333333333333333,-0.11555555555555555,0.82999999999999996,1.70999999999999996,10.00000000000000000,-0.00000000000000000,0.00000000000000000,11.66241097600000032
3.28998970985412598,443.51075379509666163,-132.87178204758993161,31.63244077508532826,0.13381255177022672,-0.00333181215021403,0.00036132141924812,0.99100099367426087,0.00000000000000000,-0.08333333333333333,-0.11555555555555555,0.82999999999999996,1.70999999999999996,10.00000000000000000,-0.00000000000000000,0.00000000000000000,11.66241097600000032
3.30011987686157227,443.26093451461366612,-132.75022694792173183,31.65526757663621638,0.13390450274162871,-0.00325575336900155,0.00023575201123032,0.99098886403254349,0.00000000000000000,-0.08333333333333333,-0.11555555555555555,0.82999999999999996,1.70999999999999996,10.00000000000000000,-0.00000000000000000,0.00000000000000000,11.66241097600000032
3.31003832817077637,443.10336888052671611,-132.73811441906423170,31.70488689505594948,0.13382768969479947,-0.00333943630247602,0.00034544603462951,0.99099892951665924,0.00000000000000000,-0.08333333333333333,-0.11555555555555555,0.82999999999999996,1.70999999999999996,10.00000000000000000,-0.00000000000000000,0.00000000000000000,11.66241097600000032
3.32002758979797363,442.82746662215203060,-132.75857295302395755,31.67810478519156092,0.13385403311579844,-0.00328000329243158,0.00042289804784766,0.99099554012834334,0.00000000000000000,-0.08333333333333333,-0.11555555555555555,0.82999999999999996,1.70999999999999996,10.00000000000000000,-0.00000000000000000,0.00000000000000000,11.66241097600000032
3.33003664016723633,442.60777039861642379,-132.72822637612080143,31.70091488329742546,0.13388366667474488,-0.00324704358158896,0.00045513291537421,0.99099163132678969,0.00000000000000000,-0.08333333333333333,-0.11555555555555555,0.82999999999999996,1.70999999999999996,10.00000000000000000,-0.00000000000000000,0.00000000000000000,11.66241097600000032
3.33998942375183105,442.44545834056106060,-132.66114511636592965,31.72291621476552237,0.13395935061564823,-0.00332783801588753,0.00045667415304713,0.99098113469706850,0.00000000000000000,-0.08333333333333333,-0.11555555555555555,0.82999999999999996,1.70999999999999996,10.00000000000000000,-0.00000000000000000,0.00000000000000000,11.66241097600000032
3.35011577606201172,442.32434998839272566,-132.53594895084776795,31.72417974478525693,0.13412796664995816,-0.00334881936773493,0.00036544551495785,0.99095829398656698,-0.01111111111111111,0.05555555555555555,-0.00777777777777778,-0.79000000000000004,2.24000000000000021,9.77999999999999936,2.10000000000000009,-2.10000000000000009,11.68546572800000050
3.36002779006958008,442.22954270061580928,-132.53810900632288394,31.74169186161870471,0.13424013556552394,-0.00338719722719853,0.00050123841807617,0.99094291543880086,-0.01111111111111111,0.05555555555555555,-0.00777777777777778,-0.79000000000000004,2.24000000000000021,9.77999999999999936,2.10000000000000009,-2.10000000000000009,11.68546572800000050
3.37002968788146973,442.07223401362040249,-132.60984057390399471,31.67115079916389675,0.13427720013343994,-0.00342750114271196,0.00067071948251829,0.99093765489843721,-0.01111111111111111,0.05555555555555555,-0.00777777777777778,-0.79000000000000004,2.24000000000000021,9.77999999999999936,2.10000000000000009,-2.10000000000000009,11.68546572800000050
3.38001966476440430,442.01675521882424391,-132.62680156518959507,31.72513214148500893,0.13420023919067045,-0.00341946821140650,0.00078861396339561,0.99094802140492655,-0.01111111111111111,0.05555555555555555,-0.00777777777777778,-0.79000000000000004,2.24000000000000021,9.77999999999999936,2.10000000000000009,-2.10000000000000009,11.68546572800000050
3.39004230499267578,442.05141479836697727,-132.57357948183755525,31.68096139106094355,0.13421379168263903,-0.00354605973744355,0.00071158285146351,0.99094579934139415,-0.01111111111111111,0.05555555555555555,-0.00777777777777778,-0.79000000000000004,2.24000000000000021,9.77999999999999936,2.10000000000000009,-2.10000000000000009,11.68546572800000050
3.40010285377502441,441.98076759186574236,-132.49095796897782407,31.69235451579632468,0.13414506753773831,-0.00351276111432820,0.00043599579639349,0.99095538308861775,-0.00555555555555556,0.00888888888888889,-0.01666666666666667,-0.25000000000000000,2.00000000000000000,9.75999999999999979,21.60000000000000142,-21.60000000000000142,11.67558512000000093
