t,x,y,z,q0,q1,q2,q3,wx,wy,wz,ax,ay,az,dutyR,dutyL,Vbatt
0.00000000000000000,-98.70862109416664509,-16.47993013990524247,31.86634414723361530,0.10438609749014452,-0.64908081232952131,0.60209034785033722,0.45308371714496731,0.00000000000000000,0.00000000000000000,0.00000000000000000,0.00000000000000000,0.00000000000000000,0.00000000000000000,0.00000000000000000,0.00000000000000000,0.00000000000000000
0.01008939743041992,-98.70862109416664509,-16.47993013990524247,31.86634414723361530,0.71187040677660340,-0.00439953017330609,0.00602209401003123,0.70227124565491172,0.00000000000000000,0.00000000000000000,0.00000000000000000,0.00000000000000000,0.00000000000000000,0.00000000000000000,0.00000000000000000,0.00000000000000000,0.00000000000000000
0.01999878883361816,-98.75652935740434657,-16.46100463357346300,31.87779708861867789,0.71186092407379653,-0.00437744381926730,0.00595577984934035,0.70228156137605957,0.00000000000000000,0.00000000000000000,0.00000000000000000,0.00000000000000000,0.00000000000000000,0.00000000000000000,0.00000000000000000,0.00000000000000000,0.00000000000000000
0.03000116348266602,-98.77484379202066123,-16.48288603154637499,31.87586741901748510,0.71184144611698696,-0.00422039823923324,0.00621285828796834,0.70230003860221513,0.00000000000000000,0.00000000000000000,0.00000000000000000,0.00000000000000000,0.00000000000000000,0.00000000000000000,0.00000000000000000,0.00000000000000000,0.00000000000000000
0.03999114036560059,-98.68305818175360855,-16.49598812475599985,31.84939370912297463,0.71187120017433692,-0.00445438567422633,0.00602591025535395,0.70227006287909588,0.00000000000000000,0.00000000000000000,0.00000000000000000,0.00000000000000000,0.00000000000000000,0.00000000000000000,0.00000000000000000,0.00000000000000000,0.00000000000000000
0.05006289482116699,-98.66517590230155577,-16.46522019841431117,31.81116707839820990,0.71188487929611244,-0.00450705268986553,0.00597189396642946,0.70225632185695830,0.00000000000000000,0.00000000000000000,0.00000000000000000,0.00000000000000000,0.00000000000000000,0.00000000000000000,0.00000000000000000,0.00000000000000000,0.00000000000000000
0.05998158454895020,-98.74665564943330764,-16.48332939209177894,31.83784183223113118,0.71190506475469884,-0.00436514277679717,0.00607218533643053,0.70223589545848941,0.00000000000000000,0.00000000000000000,0.00000000000000000,0.00000000000000000,0.00000000000000000,0.00000000000000000,0.00000000000000000,0.00000000000000000,0.00000000000000000
0.06998157501220703,-98.70042951924661168,-16.48268870307970957,31.85263153971114392,0.71185173187299511,-0.00435257508999906,0.00622849699617739,0.70228866767496123,0.00000000000000000,0.00000000000000000,0.00000000000000000,0.00000000000000000,0.00000000000000000,0.00000000000000000,0.00000000000000000,0.00000000000000000,0.00000000000000000
0.08008289337158203,-98.72291397064877572,-16.47833646193319268,31.83964343727094715,0.71186977447813904,-0.00430858469559170,0.00622835326107445,0.70227065145712830,0.00000000000000000,0.00000000000000000,0.00000000000000000,0.00000000000000000,0.00000000000000000,0.00000000000000000,0.00000000000000000,0.00000000000000000,0.00000000000000000
0.08998727798461914,-98.76787969352533025,-16.45669042636225399,31.85145368124258525,0.71190805860998951,-0.00429740712181709,0.00605076282927181,0.70223346306436352,0.00000000000000000,0.00000000000000000,0.00000000000000000,0.00000000000000000,0.00000000000000000,0.00000000000000000,0.00000000000000000,0.00000000000000000,0.00000000000000000
0.09997963905334473,-98.63298727764771456,-16.46709351821264633,31.85480482212567210,0.71185313862509114,-0.00450705058110408,0.00596409319422984,0.70228856257028494,0.00000000000000000,0.00000000000000000,0.00000000000000000,0.00000000000000000,0.00000000000000000,0.00000000000000000,0.00000000000000000,0.00000000000000000,0.00000000000000000
0.11000466346740723,-98.73432133535634136,-16.47980418323797025,31.84930423730599713,0.71192393585594793,-0.00439655025902711,0.00603140216964210,0.70221691954058196,0.00000000000000000,0.00000000000000000,0.00000000000000000,0.00000000000000000,0.00000000000000000,0.00000000000000000,0.00000000000000000,0.00000000000000000,0.00000000000000000
0.11998438835144043,-98.72794100778446591,-16.46016036380233416,31.85424134522586925,0.71190688260245416,-0.00425426368790776,0.00608795285792255,0.70223459653717502,0.00000000000000000,0.00000000000000000,0.00000000000000000,0.00000000000000000,0.00000000000000000,0.00000000000000000,0.00000000000000000,0.00000000000000000,0.00000000000000000
0.13007164001464844,-98.79780662607339536,-16.46168625659439044,31.86277136253399433,0.71189040180693508,-0.00420505477105704,0.00612581321223524,0.70225127108608443,0.00000000000000000,0.00000000000000000,0.00000000000000000,0.00000000000000000,0.00000000000000000,0.00000000000000000,0.00000000000000000,0.00000000000000000,0.00000000000000000
0.13998436927795410,-98.78491565706356425,-16.52414209119309518,31.84169727937011984,0.71185843210092603,-0.00435965667850618,0.00620458977609207,0.70228204384432846,0.00000000000000000,0.00000000000000000,0.00000000000000000,0.00000000000000000,0.00000000000000000,0.00000000000000000,0.00000000000000000,0.00000000000000000,0.00000000000000000
0.15002560615539551,-98.67162672653610400,-16.48166538488886701,31.82878017116077629,0.71192490602064984,-0.00448214568169479,0.00599376453157557,0.70221571710145914,0.00000000000000000,0.00000000000000000,0.00000000000000000,0.00000000000000000,0.00000000000000000,0.00000000000000000,0.00000000000000000,0.00000000000000000,0.00000000000000000
0.16008090972900391,-98.69546051066758707,-16.48877259294584263,31.85013696505648895,0.71191511420252296,-0.00439181009910949,0.00612816648997104,0.70222505491440090,0.00000000000000000,0.00000000000000000,0.00000000000000000,0.00000000000000000,0.00000000000000000,0.00000000000000000,0.00000000000000000,0.00000000000000000,0.00000000000000000
0.17002201080322266,-98.73885938264884032,-16.44575814760314714,31.82521476405614536,0.71190986375540199,-0.00425688822974957,0.00614531965414390,0.70223105872405922,0.00000000000000000,-0.00111111111111111,-0.00111111111111111,-0.17999999999999999,1.86000000000000010,9.59999999999999964,0.00000000000000000,0.00000000000000000,11.64264976000000118
0.18000864982604980,-98.77307324658887921,-16.47409240604855540,31.80050116828431683,0.71189440902613166,-0.00433221852553172,0.00616426142007685,0.70224609942749172,0.00000000000000000,-0.00111111111111111,-0.00111111111111111,-0.17999999999999999,1.86000000000000010,9.59999999999999964,0.00000000000000000,0.00000000000000000,11.64264976000000118
0.18999862670898438,-98.73069260985516848,-16.48766834821758565,31.85090664019143958,0.71188165080549970,-0.00439696410015354,0.00609913356197638,0.70225919895928113,0.00000000000000000,-0.00111111111111111,-0.00111111111111111,-0.17999999999999999,1.86000000000000010,9.59999999999999964,0.00000000000000000,0.00000000000000000,11.64264976000000118
0.20007944107055664,-98.68386668083955726,-16.48199722154374669,31.81056862719651690,0.71186351857438912,-0.00438682664252912,0.00620244509014583,0.70227673772509547,0.00000000000000000,-0.00111111111111111,-0.00111111111111111,-0.17999999999999999,1.86000000000000010,9.59999999999999964,0.00000000000000000,0.00000000000000000,11.64264976000000118
0.20999264717102051,-98.71656526622234651,-16.45276315290753644,31.84551958013136641,0.71191632935470728,-0.00424460288756995,0.00620646764045293,0.70222404053398424,0.00000000000000000,0.00111111111111111,-0.00000000000000000,-0.20000000000000001,1.86000000000000010,9.63000000000000078,0.00000000000000000,0.00000000000000000,11.64594329600000044
0.22000837326049805,-98.72343660951149502,-16.49734973879556321,31.84053643114457088,0.71186669115216505,-0.00422329323064074,0.00635010773774398,0.70227320463910325,0.00000000000000000,0.00111111111111111,-0.00000000000000000,-0.20000000000000001,1.86000000000000010,9.63000000000000078,0.00000000000000000,0.00000000000000000,11.64594329600000044
0.23003053665161133,-98.76529701581819154,-16.49358847839985742,31.80977036659771429,0.71188319713512727,-0.00419827254658491,0.00635208535832795,0.70225660492151643,0.00000000000000000,0.00111111111111111,-0.00000000000000000,-0.20000000000000001,1.86000000000000010,9.63000000000000078,0.00000000000000000,0.00000000000000000,11.64594329600000044
0.24004697799682617,-98.75141012289493858,-16.47776611773126731,31.80644881772195731,0.71189884799991721,-0.00431563515586745,0.00622031622957327,0.70224120726114958,0.00111111111111111,-0.00333333333333333,-0.00000000000000000,-0.20999999999999999,1.87999999999999989,9.67999999999999972,0.00000000000000000,0.00000000000000000,11.66899804800000062
0.25006818771362305,-98.69335564376781633,-16.46551657807816937,31.81319621445823387,0.71190770030674966,-0.00431012759262933,0.00617963147783441,0.70223262612818593,0.00111111111111111,-0.00333333333333333,-0.00000000000000000,-0.20999999999999999,1.87999999999999989,9.67999999999999972,0.00000000000000000,0.00000000000000000,11.66899804800000062
0.26008772850036621,-98.76615816386633639,-16.48224359325454813,31.81513020081661480,0.71190525783923320,-0.00428653689307798,0.00621402535432277,0.70223494312887547,0.00111111111111111,-0.00333333333333333,-0.00000000000000000,-0.20999999999999999,1.87999999999999989,9.67999999999999972,0.00000000000000000,0.00000000000000000,11.66899804800000062
0.27012848854064941,-98.78564890565560574,-16.47279838385980000,31.80286086158440639,0.71191101023579884,-0.00422314566537698,0.00621847004699190,0.70222945621499533,0.00111111111111111,-0.00333333333333333,-0.00000000000000000,-0.20999999999999999,1.87999999999999989,9.67999999999999972,0.00000000000000000,0.00000000000000000,11.66899804800000062
0.28010582923889160,-98.75723346655684054,-16.45348738673054001,31.78726519992015653,0.71195530840999921,-0.00427124975343813,0.00621703334096714,0.70218426623558317,0.00111111111111111,-0.00333333333333333,-0.00000000000000000,-0.20999999999999999,1.87999999999999989,9.67999999999999972,0.00000000000000000,0.00000000000000000,11.66899804800000062
0.29007077217102051,-98.74732649721455857,-16.50223682155801797,31.79968106666578365,0.71188375353889666,-0.00437656961402965,0.00621461916114409,0.70225618231131770,0.00111111111111111,-0.00333333333333333,-0.00000000000000000,-0.20999999999999999,1.87999999999999989,9.67999999999999972,0.00000000000000000,0.00000000000000000,11.66899804800000062
0.30007624626159668,-98.69789001192661715,-16.48141326152745378,31.80948116486581512,0.71189001606919211,-0.00444222699940876,0.00606346066717579,0.70225074302917556,0.00111111111111111,-0.00333333333333333,-0.00000000000000000,-0.20999999999999999,1.87999999999999989,9.67999999999999972,0.00000000000000000,0.00000000000000000,11.66899804800000062
0.31004595756530762,-98.73039651385920479,-16.49091510033349905,31.83885897411746058,0.71190059426363517,-0.00428781166081337,0.00626159813671380,0.70223924053488973,0.00000000000000000,-0.00000000000000000,-0.00000000000000000,-0.17000000000000001,1.85000000000000009,9.65000000000000036,0.00000000000000000,0.00000000000000000,11.66570451199999958
0.32016825675964355,-98.75093642702604768,-16.47943808333412008,31.80519141571742026,0.71194376576764207,-0.00424475783555454,0.00625179887112936,0.70219582128234082,0.00000000000000000,-0.00000000000000000,-0.00000000000000000,-0.17000000000000001,1.85000000000000009,9.65000000000000036,0.00000000000000000,0.00000000000000000,11.66570451199999958
0.33011698722839355,-98.77203243290320245,-16.46642378740804702,31.81966438372492334,0.71192170387174158,-0.00420331326994187,0.00625270798713260,0.70221842994665062,0.00000000000000000,-0.00000000000000000,-0.00000000000000000,-0.17000000000000001,1.85000000000000009,9.65000000000000036,0.00000000000000000,0.00000000000000000,11.66570451199999958
0.34019756317138672,-98.80427349650256019,-16.45806102532157311,31.81008057526028310,0.71194810253542651,-0.00410704912522523,0.00628417804175371,0.70219195420485170,0.00000000000000000,-0.00000000000000000,-0.00000000000000000,-0.17000000000000001,1.85000000000000009,9.65000000000000036,0.00000000000000000,0.00000000000000000,11.66570451199999958
0.35011482238769531,-98.69558200055591612,-16.46551934058203770,31.78168887134428644,0.71195271544087391,-0.00429590101315822,0.00614374420181406,0.70218738995942809,-0.00222222222222222,-0.00000000000000000,-0.00000000000000000,-0.22000000000000000,1.85000000000000009,9.66000000000000014,0.00000000000000000,0.00000000000000000,11.63935622400000014
0.36011481285095215,-98.74492930186390538,-16.50219737860030378,31.81170311975492027,0.71187744119393181,-0.00427541208726654,0.00633734957697029,0.70226210745775219,-0.00222222222222222,-0.00000000000000000,-0.00000000000000000,-0.22000000000000000,1.85000000000000009,9.66000000000000014,0.00000000000000000,0.00000000000000000,11.63935622400000014
0.37013125419616699,-98.76366317314614207,-16.47907961282827927,31.79849095942683235,0.71193306068286955,-0.00422829383914126,0.00631376193458906,0.70220621974471642,-0.00222222222222222,-0.00000000000000000,-0.00000000000000000,-0.22000000000000000,1.85000000000000009,9.66000000000000014,0.00000000000000000,0.00000000000000000,11.63935622400000014
0.38012146949768066,-98.77153128311333319,-16.47477013371070598,31.80813191294041431,0.71195818342127926,-0.00421234075209032,0.00628241321236813,0.70218112515866526,-0.00222222222222222,-0.00000000000000000,-0.00000000000000000,-0.22000000000000000,1.85000000000000009,9.66000000000000014,0.00000000000000000,0.00000000000000000,11.63935622400000014
0.39017033576965332,-98.73256279052630191,-16.48776939915663320,31.77875077416988958,0.71198110941293724,-0.00427935326692774,0.00624926339669945,0.70215776979375444,-0.00222222222222222,-0.00000000000000000,-0.00000000000000000,-0.22000000000000000,1.85000000000000009,9.66000000000000014,0.00000000000000000,0.00000000000000000,11.63935622400000014
0.40009188652038574,-98.69948142143532266,-16.46173177413705702,31.76542281290382519,0.71200041666191005,-0.00429039371642915,0.00617555431946787,0.70213877668440416,-0.00222222222222222,-0.00222222222222222,0.00111111111111111,-0.19000000000000000,1.87000000000000011,9.66999999999999993,0.00000000000000000,0.00000000000000000,11.64264976000000118
0.41007757186889648,-98.74007242887212499,-16.47898441050948648,31.83218323942135086,0.71192054724430442,-0.00428739896449073,0.00616444664043225,0.70221987455433521,-0.00222222222222222,-0.00222222222222222,0.00111111111111111,-0.19000000000000000,1.87000000000000011,9.66999999999999993,0.00000000000000000,0.00000000000000000,11.64264976000000118
0.42006754875183105,-98.75662647533938809,-16.46585874730211074,31.82610111744921255,0.71194249457837888,-0.00412507477938267,0.00628155716553675,0.70219755782198168,-0.00222222222222222,-0.00222222222222222,0.00111111111111111,-0.19000000000000000,1.87000000000000011,9.66999999999999993,0.00000000000000000,0.00000000000000000,11.64264976000000118
0.43009924888610840,-98.75618820038948797,-16.46261364869073773,31.78562828011021679,0.71194484852617934,-0.00421399923667579,0.00625467137003045,0.70219488317241519,-0.00222222222222222,-0.00222222222222222,0.00111111111111111,-0.19000000000000000,1.87000000000000011,9.66999999999999993,0.00000000000000000,0.00000000000000000,11.64264976000000118
0.44011712074279785,-98.64911341198221351,-16.51048549846345992,31.79491680760806460,0.71189700766729980,-0.00444133350229974,0.00622283388010807,0.70224226686348490,-0.00222222222222222,-0.00222222222222222,0.00111111111111111,-0.19000000000000000,1.87000000000000011,9.66999999999999993,0.00000000000000000,0.00000000000000000,11.64264976000000118
0.45012617111206055,-98.64798681721235596,-16.49846853874552721,31.80306411881498363,0.71187391176343484,-0.00442220446679748,0.00620781832029218,0.70226593314070229,-0.00222222222222222,-0.00000000000000000,-0.00111111111111111,-0.19000000000000000,1.85000000000000009,9.66000000000000014,0.00000000000000000,0.00000000000000000,11.64923683199999971
0.46012496948242188,-98.73038720488881381,-16.48796232588138722,31.84728451913777292,0.71181746069601426,-0.00440441269630160,0.00619963173404170,0.70232333605216457,-0.00222222222222222,-0.00000000000000000,-0.00111111111111111,-0.19000000000000000,1.85000000000000009,9.66000000000000014,0.00000000000000000,0.00000000000000000,11.64923683199999971
0.47012567520141602,-98.70624981518442098,-16.49379570052249377,31.82308522454658828,0.71188386911915535,-0.00430316861911849,0.00633208860552652,0.70225546938537164,-0.00222222222222222,-0.00000000000000000,-0.00111111111111111,-0.19000000000000000,1.85000000000000009,9.66000000000000014,0.00000000000000000,0.00000000000000000,11.64923683199999971
0.48014640808105469,-98.72444917449986690,-16.49591781401838375,31.81143042732712800,0.71186869578712131,-0.00431998706407962,0.00628222563379423,0.70227119498894131,-0.00222222222222222,-0.00000000000000000,-0.00111111111111111,-0.19000000000000000,1.85000000000000009,9.66000000000000014,0.00000000000000000,0.00000000000000000,11.64923683199999971
0.49006032943725586,-98.75381641449227743,-16.49631922883690649,31.82014906858390191,0.71185105750084432,-0.00429155567958859,0.00631028697027475,0.70228899661259936,-0.00222222222222222,-0.00000000000000000,-0.00111111111111111,-0.19000000000000000,1.85000000000000009,9.66000000000000014,0.00000000000000000,0.00000000000000000,11.64923683199999971
0.50009894371032715,-98.72730067262222065,-16.48078368369546354,31.77866096452802935,0.71186340158731165,-0.00438637439465786,0.00619032244845205,0.70227696609542578,-0.00111111111111111,-0.00222222222222222,0.00111111111111111,-0.17999999999999999,1.86000000000000010,9.66999999999999993,0.00000000000000000,0.00000000000000000,11.64923683199999971
0.51004409790039062,-98.74849212123194775,-16.48978734656150991,31.80498189767875772,0.71190867383913037,-0.00434919944803208,0.00621289173289494,0.70223110480317452,-0.00111111111111111,-0.00222222222222222,0.00111111111111111,-0.17999999999999999,1.86000000000000010,9.66999999999999993,0.00000000000000000,0.00000000000000000,11.64923683199999971
0.52006530761718750,-98.70353277362040956,-16.50148514015510059,31.82587994551700561,0.71186912287967852,-0.00428885397807073,0.00631529840671032,0.70227065624878982,-0.00111111111111111,-0.00222222222222222,0.00111111111111111,-0.17999999999999999,1.86000000000000010,9.66999999999999993,0.00000000000000000,0.00000000000000000,11.64923683199999971
0.53015971183776855,-98.73475062509442068,-16.46786377177863514,31.84724914616910141,0.71187086994710369,-0.00421691228459572,0.00634474002147648,0.70226905559450448,-0.00111111111111111,-0.00222222222222222,0.00111111111111111,-0.17999999999999999,1.86000000000000010,9.66999999999999993,0.00000000000000000,0.00000000000000000,11.64923683199999971
0.54018616676330566,-98.75577092825430725,-16.49781972812894892,31.83248637540699022,0.71192627711849676,-0.00419211144027658,0.00629981405781519,0.70221343941333569,-0.00111111111111111,-0.00222222222222222,0.00111111111111111,-0.17999999999999999,1.86000000000000010,9.66999999999999993,0.00000000000000000,0.00000000000000000,11.64923683199999971
0.55017876625061035,-98.72578631072660471,-16.48371478999841244,31.80160824389118446,0.71188658735476273,-0.00431773814365723,0.00616513601302001,0.70225410997704607,-0.00222222222222222,-0.00000000000000000,-0.28333333333333333,-0.20000000000000001,1.84000000000000008,9.69999999999999929,0.00000000000000000,0.00000000000000000,11.64264976000000118
0.56011843681335449,-98.71346634482256377,-16.48253285128260970,31.85966414205202213,0.71188146283931797,-0.00433469544493632,0.00618536343050105,0.70225902241294491,-0.00222222222222222,-0.00000000000000000,-0.28333333333333333,-0.20000000000000001,1.84000000000000008,9.69999999999999929,0.00000000000000000,0.00000000000000000,11.64264976000000118
0.57007193565368652,-98.78456606266001927,-16.47875779698620136,31.82520898551997490,0.71190154073379375,-0.00416063478148567,0.00629310573417120,0.70223876440943056,-0.00222222222222222,-0.00000000000000000,-0.28333333333333333,-0.20000000000000001,1.84000000000000008,9.69999999999999929,0.00000000000000000,0.00000000000000000,11.64264976000000118
0.58010292053222656,-98.75239916345721269,-16.49374800760003978,31.83344816901795582,0.71185972049361101,-0.00427739784076205,0.00626909040271919,0.70228067089447377,-0.00222222222222222,-0.00000000000000000,-0.28333333333333333,-0.20000000000000001,1.84000000000000008,9.69999999999999929,0.00000000000000000,0.00000000000000000,11.64264976000000118
0.59028053283691406,-98.78243370142676838,-16.49316051317321907,31.80879212197365646,0.71192540675302041,-0.00421943488058264,0.00632482969441657,0.70221393329823034,-0.00222222222222222,-0.00000000000000000,-0.28333333333333333,-0.20000000000000001,1.84000000000000008,9.69999999999999929,0.00000000000000000,0.00000000000000000,11.64264976000000118
0.60010218620300293,-98.71797319377880342,-16.45505240703195327,31.79861844177821695,0.71196199535977023,-0.00427926873521151,0.00606769618858902,0.70217874368666933,0.00000000000000000,-0.00000000000000000,0.00222222222222222,-0.20999999999999999,1.85000000000000009,9.63000000000000078,0.00000000000000000,0.00000000000000000,11.66899804800000062
0.61005425453186035,-98.76546339367212113,-16.46261717774235223,31.84115103453651940,0.71192489120824487,-0.00417534862429088,0.00621724454499673,0.70221568026658432,0.00000000000000000,-0.00000000000000000,0.00222222222222222,-0.20999999999999999,1.85000000000000009,9.63000000000000078,0.00000000000000000,0.00000000000000000,11.66899804800000062
0.62005257606506348,-98.75843407780998007,-16.48919924376003365,31.83729897470851711,0.71188476476694140,-0.00416430279511802,0.00629683475260061,0.70225571563857392,0.00000000000000000,-0.00000000000000000,0.00222222222222222,-0.20999999999999999,1.85000000000000009,9.63000000000000078,0.00000000000000000,0.00000000000000000,11.66899804800000062
0.63009881973266602,-98.76083692113407153,-16.49122059877911539,31.80882211186211350,0.71190105218071187,-0.00426289838808252,0.00623808281997488,0.70223913727736620,0.00000000000000000,-0.00000000000000000,0.00222222222222222,-0.20999999999999999,1.85000000000000009,9.63000000000000078,0.00000000000000000,0.00000000000000000,11.66899804800000062
0.64012122154235840,-98.80639775119590240,-16.48937623010342790,31.82073771792790140,0.71192365395394053,-0.00420313744326608,0.00625985026395995,0.70221639033219374,0.00000000000000000,-0.00000000000000000,0.00222222222222222,-0.20999999999999999,1.85000000000000009,9.63000000000000078,0.00000000000000000,0.00000000000000000,11.66899804800000062
0.65011739730834961,-98.73302415857790493,-16.50040251472113439,31.77714919062401577,0.71191558732622973,-0.00439603553953040,0.00617810147797295,0.70222411127474993,0.00000000000000000,-0.00333333333333333,0.00333333333333333,-0.20000000000000001,1.86000000000000010,9.65000000000000036,0.00000000000000000,0.00000000000000000,11.64264976000000118
0.66013073921203613,-98.71792242314431576,-16.47716497331129304,31.84768837372095973,0.71188663087497439,-0.00433303875152950,0.00619311404657602,0.70225372544050046,0.00000000000000000,-0.00333333333333333,0.00333333333333333,-0.20000000000000001,1.86000000000000010,9.65000000000000036,0.00000000000000000,0.00000000000000000,11.64264976000000118
0.67018413543701172,-98.81857100173806430,-16.48279120436668066,31.82589448942737320,0.71184682150338563,-0.00416443536424643,0.00635002641184381,0.70229369736470870,0.00000000000000000,-0.00333333333333333,0.00333333333333333,-0.20000000000000001,1.86000000000000010,9.65000000000000036,0.00000000000000000,0.00000000000000000,11.64264976000000118
0.68020653724670410,-98.71795822999467873,-16.46246951351513843,31.81775639609854878,0.71193495001618912,-0.00429924561629330,0.00624780974898160,0.70220446331956465,0.00000000000000000,-0.00333333333333333,0.00333333333333333,-0.20000000000000001,1.86000000000000010,9.65000000000000036,0.00000000000000000,0.00000000000000000,11.64264976000000118
0.69011807441711426,-98.78332737911023287,-16.49213787208899262,31.82037449562970721,0.71194871674807603,-0.00417609304752936,0.00630484568485503,0.70219073896521622,0.00000000000000000,-0.00333333333333333,0.00333333333333333,-0.20000000000000001,1.86000000000000010,9.65000000000000036,0.00000000000000000,0.00000000000000000,11.64264976000000118
0.70007967948913574,-98.69462485943887486,-16.49355674525073212,31.79684690409634484,0.71193612900670167,-0.00437298600822881,0.00619243779203288,0.70220330312703361,0.00111111111111111,-0.00222222222222222,0.00333333333333333,-0.20000000000000001,1.86000000000000010,9.66000000000000014,0.00000000000000000,0.00000000000000000,11.66899804800000062
0.71007490158081055,-98.73293263230448247,-16.48375564879641431,31.85553467309290809,0.71189905686110100,-0.00432540675935177,0.00615604732431652,0.70224150174849531,0.00111111111111111,-0.00222222222222222,0.00333333333333333,-0.20000000000000001,1.86000000000000010,9.66000000000000014,0.00000000000000000,0.00000000000000000,11.66899804800000062
0.72007107734680176,-98.76671454844927212,-16.47823004435666405,31.81226566913881015,0.71193163217840694,-0.00425872136771214,0.00625479793142893,0.70220801184473736,0.00111111111111111,-0.00222222222222222,0.00333333333333333,-0.20000000000000001,1.86000000000000010,9.66000000000000014,0.00000000000000000,0.00000000000000000,11.66899804800000062
0.73009610176086426,-98.76424925234944396,-16.49465888215303266,31.78591710331275522,0.71194416747250333,-0.00417279959516547,0.00639759336762778,0.70219453212377347,0.00111111111111111,-0.00222222222222222,0.00333333333333333,-0.20000000000000001,1.86000000000000010,9.66000000000000014,0.00000000000000000,0.00000000000000000,11.66899804800000062
0.74007201194763184,-98.75487167876333672,-16.48994463341275463,31.83276185791430990,0.71197059172748556,-0.00414981383516672,0.00633572197789548,0.70216843719108202,0.00111111111111111,-0.00222222222222222,0.00333333333333333,-0.20000000000000001,1.86000000000000010,9.66000000000000014,0.00000000000000000,0.00000000000000000,11.66899804800000062
0.75009155273437500,-98.73009303688957061,-16.48154313144421579,31.78739127818052523,0.71191552665582780,-0.00429021592793920,0.00619103809690792,0.70222471332254444,-0.00111111111111111,-0.00000000000000000,-0.00111111111111111,-0.20000000000000001,1.86000000000000010,9.66999999999999993,0.00000000000000000,0.00000000000000000,11.66241097600000032
0.76012182235717773,-98.77391644442666063,-16.48922079784927419,31.83886419319898664,0.71190526501706708,-0.00422014771653454,0.00625649199155104,0.70223496089427895,-0.00111111111111111,-0.00000000000000000,-0.00111111111111111,-0.20000000000000001,1.86000000000000010,9.66999999999999993,0.00000000000000000,0.00000000000000000,11.66241097600000032
0.77012038230895996,-98.81934361815133627,-16.48293838329961503,31.75959741747267628,0.71196310977847477,-0.00419828192699930,0.00629403914552104,0.70217611025629445,-0.00111111111111111,-0.00000000000000000,-0.00111111111111111,-0.20000000000000001,1.86000000000000010,9.66999999999999993,0.00000000000000000,0.00000000000000000,11.66241097600000032
0.78012204170227051,-98.75121906723141763,-16.46943628775516899,31.82581004047291628,0.71194258035792979,-0.00421863796123408,0.00618701421447449,0.70219775435567577,-0.00111111111111111,-0.00000000000000000,-0.00111111111111111,-0.20000000000000001,1.86000000000000010,9.66999999999999993,0.00000000000000000,0.00000000000000000,11.66241097600000032
0.79003453254699707,-98.76595649211053285,-16.46235977247147986,31.81871909004867049,0.71197198233019332,-0.00420049947261804,0.00619408748720768,0.70216798948769799,-0.00111111111111111,-0.00000000000000000,-0.00111111111111111,-0.20000000000000001,1.86000000000000010,9.66999999999999993,0.00000000000000000,0.00000000000000000,11.66241097600000032
0.80003857612609863,-98.72044760586618395,-16.44875839657133909,31.80503508811280255,0.71198113711661315,-0.00430358241842436,0.00607363572939549,0.70215913475331881,-0.00333333333333333,-0.00000000000000000,0.00222222222222222,-0.17999999999999999,1.86000000000000010,9.66000000000000014,0.00000000000000000,0.00000000000000000,11.66570451199999958
0.81003403663635254,-98.72707222092208212,-16.46541088985562951,31.80297542734594174,0.71198626700615208,-0.00432001717020255,0.00615783238288913,0.70215309879444254,-0.00333333333333333,-0.00000000000000000,0.00222222222222222,-0.17999999999999999,1.86000000000000010,9.66000000000000014,0.00000000000000000,0.00000000000000000,11.66570451199999958
0.82003235816955566,-98.78199009065410507,-16.48102556841483235,31.80464909151297093,0.71195687514699002,-0.00427061694427372,0.00618271507024421,0.70218298455332029,-0.00333333333333333,-0.00000000000000000,0.00222222222222222,-0.17999999999999999,1.86000000000000010,9.66000000000000014,0.00000000000000000,0.00000000000000000,11.66570451199999958
0.83010101318359375,-98.76002130588672401,-16.47009169260712014,31.82364875211888133,0.71195812751023246,-0.00422908551141537,0.00620720810453577,0.70218175003015260,-0.00333333333333333,-0.00000000000000000,0.00222222222222222,-0.17999999999999999,1.86000000000000010,9.66000000000000014,0.00000000000000000,0.00000000000000000,11.66570451199999958
0.84027433395385742,-98.78378278604999707,-16.48226081990199887,31.80243166708828895,0.71197959603383487,-0.00421467488486103,0.00622576980061579,0.70215990425080654,-0.00333333333333333,-0.00000000000000000,0.00222222222222222,-0.17999999999999999,1.86000000000000010,9.66000000000000014,0.00000000000000000,0.00000000000000000,11.66570451199999958
0.85015249252319336,-98.70235175596087629,-16.47499059848329850,31.80411640974963561,0.71193365056315283,-0.00436197205211064,0.00611082195062720,0.70220659940698871,0.00000000000000000,-0.00333333333333333,0.00111111111111111,-0.20000000000000001,1.87000000000000011,9.67999999999999972,0.00000000000000000,0.00000000000000000,11.64923683199999971
0.86012053489685059,-98.78574573791718194,-16.45774619738358169,31.83581133845934730,0.71197430925459981,-0.00419938125959384,0.00609221689217036,0.70216652800586454,0.00000000000000000,-0.00333333333333333,0.00111111111111111,-0.20000000000000001,1.87000000000000011,9.67999999999999972,0.00000000000000000,0.00000000000000000,11.64923683199999971
0.87011480331420898,-98.72188813728160994,-16.49349634062572179,31.80501675434655695,0.71190247891461689,-0.00432916077034281,0.00627436124425598,0.70223696233766020,0.00000000000000000,-0.00333333333333333,0.00111111111111111,-0.20000000000000001,1.87000000000000011,9.67999999999999972,0.00000000000000000,0.00000000000000000,11.64923683199999971
0.88009405136108398,-98.75387058217476977,-16.48498969127661340,31.83364187967979220,0.71189866285991632,-0.00427460766634910,0.00620341762129331,0.70224179536494269,0.00000000000000000,-0.00333333333333333,0.00111111111111111,-0.20000000000000001,1.87000000000000011,9.67999999999999972,0.00000000000000000,0.00000000000000000,11.64923683199999971
0.89012575149536133,-98.75598196821117369,-16.45007617872238370,31.86192892858519699,0.71192168572414749,-0.00415912507939877,0.00621900876806934,0.70221901071119208,0.00000000000000000,-0.00333333333333333,0.00111111111111111,-0.20000000000000001,1.87000000000000011,9.67999999999999972,0.00000000000000000,0.00000000000000000,11.64923683199999971
0.90007734298706055,-98.75378574018874644,-16.47217304193321397,31.81786455302292893,0.71192287896275608,-0.00421951131658630,0.00615892537385218,0.70221797027124677,-0.00111111111111111,-0.00333333333333333,0.00111111111111111,-0.19000000000000000,1.85000000000000009,9.66999999999999993,0.00000000000000000,0.00000000000000000,11.66241097600000032
0.91005825996398926,-98.74983617345554876,-16.46248738472288764,31.84650572172458283,0.71187129356186885,-0.00433084371847134,0.00606190991768970,0.70227043113275667,-0.00111111111111111,-0.00333333333333333,0.00111111111111111,-0.19000000000000000,1.85000000000000009,9.66999999999999993,0.00000000000000000,0.00000000000000000,11.66241097600000032
0.92003059387207031,-98.75904642665274480,-16.49143503906606512,31.82011450074747927,0.71186134498547748,-0.00434988755401315,0.00624554790709499,0.70227878874779848,-0.00111111111111111,-0.00333333333333333,0.00111111111111111,-0.19000000000000000,1.85000000000000009,9.66999999999999993,0.00000000000000000,0.00000000000000000,11.66241097600000032
0.93010282516479492,-98.75262756158616639,-16.48264367307899292,31.85500637482290287,0.71189228854239262,-0.00425657653175161,0.00614289296292716,0.70224889885008024,-0.00111111111111111,-0.00333333333333333,0.00111111111111111,-0.19000000000000000,1.85000000000000009,9.66999999999999993,0.00000000000000000,0.00000000000000000,11.66241097600000032
0.94017314910888672,-98.69997613535531400,-16.48906994513862401,31.81263388908652701,0.71187908571894587,-0.00443175550656524,0.00606363255797284,0.70226188791596078,-0.00111111111111111,-0.00333333333333333,0.00111111111111111,-0.19000000000000000,1.85000000000000009,9.66999999999999993,0.00000000000000000,0.00000000000000000,11.66241097600000032
0.95012116432189941,-98.67622630230796688,-16.48501813497034973,31.84305257220061947,0.71185960381418234,-0.00447843069951761,0.00605406151069308,0.70228142254740700,-0.00111111111111111,0.00111111111111111,-0.00111111111111111,-0.22000000000000000,1.87000000000000011,9.69999999999999929,0.00000000000000000,0.00000000000000000,11.66241097600000032
0.96011781692504883,-98.72945061598518635,-16.48378590908106034,31.86203242850918471,0.71184422289357585,-0.00434417175374233,0.00617964367677539,0.70229676242229877,-0.00111111111111111,0.00111111111111111,-0.00111111111111111,-0.22000000000000000,1.87000000000000011,9.69999999999999929,0.00000000000000000,0.00000000000000000,11.66241097600000032
0.97011494636535645,-98.72579388592663463,-16.49137163721313470,31.82564475629237677,0.71187168441903459,-0.00434735963751327,0.00621535317396551,0.70226859161684829,-0.00111111111111111,0.00111111111111111,-0.00111111111111111,-0.22000000000000000,1.87000000000000011,9.69999999999999929,0.00000000000000000,0.00000000000000000,11.66241097600000032
0.98013043403625488,-98.73010164959210044,-16.46743389983050321,31.86119330247659320,0.71190555343808581,-0.00421790724735961,0.00618327132241832,0.70223533049699149,-0.00111111111111111,0.00111111111111111,-0.00111111111111111,-0.22000000000000000,1.87000000000000011,9.69999999999999929,0.00000000000000000,0.00000000000000000,11.66241097600000032
0.99016237258911133,-98.76087907164715318,-16.49312105687243601,31.81993875595457766,0.71190736409804745,-0.00430095499113820,0.00618730601177542,0.70223295563043131,-0.00111111111111111,0.00111111111111111,-0.00111111111111111,-0.22000000000000000,1.87000000000000011,9.69999999999999929,0.00000000000000000,0.00000000000000000,11.66241097600000032
1.00007557868957520,-98.66301740200395898,-16.48776097951144948,31.81306852558597953,0.71189259609206579,-0.00450095711764432,0.00608777859999411,0.70224754322535154,0.00000000000000000,0.00222222222222222,-0.00000000000000000,-0.19000000000000000,1.86000000000000010,9.65000000000000036,0.00000000000000000,0.00000000000000000,11.64923683199999971
1.01009345054626465,-98.70990127670364700,-16.45140197350729139,31.86293380679733289,0.71197647502478356,-0.00426824746880048,0.00609488179258228,0.70216389361085985,0.00000000000000000,0.00222222222222222,-0.00000000000000000,-0.19000000000000000,1.86000000000000010,9.65000000000000036,0.00000000000000000,0.00000000000000000,11.64923683199999971
1.02008819580078125,-98.78475145995635387,-16.48174896818751023,31.82708821619719686,0.71187029261581170,-0.00419618732300051,0.00627982131676438,0.70227034847504310,0.00000000000000000,0.00222222222222222,-0.00000000000000000,-0.19000000000000000,1.86000000000000010,9.65000000000000036,0.00000000000000000,0.00000000000000000,11.64923683199999971
1.03005933761596680,-98.73936014093465019,-16.49810824302032231,31.81662319986425658,0.71189607667146848,-0.00432946096899960,0.00618872597625643,0.70224421069758880,0.00000000000000000,0.00222222222222222,-0.00000000000000000,-0.19000000000000000,1.86000000000000010,9.65000000000000036,0.00000000000000000,0.00000000000000000,11.64923683199999971
1.04004526138305664,-98.74574136492795162,-16.51203494079619460,31.80360662754641154,0.71191143274016844,-0.00435965267072647,0.00616409794094107,0.70222867305387460,0.00000000000000000,0.00222222222222222,-0.00000000000000000,-0.19000000000000000,1.86000000000000010,9.65000000000000036,0.00000000000000000,0.00000000000000000,11.64923683199999971
1.05009698867797852,-98.70551709229938808,-16.47904697842936272,31.79132927314023860,0.71188074049089534,-0.00438795607387844,0.00619139441974525,0.70225937074187017,0.00000000000000000,0.00222222222222222,-0.00000000000000000,-0.19000000000000000,1.86000000000000010,9.65000000000000036,0.00000000000000000,0.00000000000000000,11.64923683199999971
1.06003141403198242,-98.72836881265224918,-16.48464643097226201,31.83246458746904395,0.71190172036775912,-0.00429093781812710,0.00620517405490227,0.70223858068680201,-0.00111111111111111,0.00555555555555556,-0.00000000000000000,-0.20000000000000001,1.86000000000000010,9.66000000000000014,0.00000000000000000,0.00000000000000000,11.66241097600000032
1.07004833221435547,-98.72825775135163440,-16.47557209761779617,31.81287055021295274,0.71189482880417509,-0.00428752572456341,0.00622402546482644,0.70224542102604592,-0.00111111111111111,0.00555555555555556,-0.00000000000000000,-0.20000000000000001,1.86000000000000010,9.66000000000000014,0.00000000000000000,0.00000000000000000,11.66241097600000032
1.08015775680541992,-98.71473123516432224,-16.48675642493986615,31.82577817792075692,0.71190082586506287,-0.00431013764822357,0.00624144722658173,0.70223904846043184,-0.00111111111111111,0.00555555555555556,-0.00000000000000000,-0.20000000000000001,1.86000000000000010,9.66000000000000014,0.00000000000000000,0.00000000000000000,11.66241097600000032
1.09013366699218750,-98.78163608696506515,-16.53210470844419788,31.82106686672325679,0.71187042006994217,-0.00421335032309987,0.00637788124117239,0.70226923280133291,0.28222222222222221,0.00111111111111111,-0.00000000000000000,-0.20000000000000001,1.87000000000000011,9.69999999999999929,0.00000000000000000,0.00000000000000000,11.65911744000000105
1.10011053085327148,-98.67843411863923109,-16.53320763346312461,31.81611614978247005,0.71184575414994555,-0.00444308268548307,0.00623756441590782,0.70229407950309708,0.28222222222222221,0.00111111111111111,-0.00000000000000000,-0.20000000000000001,1.87000000000000011,9.69999999999999929,0.00000000000000000,0.00000000000000000,11.65911744000000105
1.11018252372741699,-98.74598683434930990,-16.49684148944458073,31.81468101100051982,0.71190027679476542,-0.00429889724623895,0.00628007297013394,0.70223932962024571,0.28222222222222221,0.00111111111111111,-0.00000000000000000,-0.20000000000000001,1.87000000000000011,9.69999999999999929,0.00000000000000000,0.00000000000000000,11.65911744000000105
1.12012243270874023,-98.74783077975980916,-16.47974081227437537,31.80065088047768995,0.71188750757060537,-0.00417527225720015,0.00638635724648230,0.70225206166134535,0.28222222222222221,0.00111111111111111,-0.00000000000000000,-0.20000000000000001,1.87000000000000011,9.69999999999999929,0.00000000000000000,0.00000000000000000,11.65911744000000105
1.13012862205505371,-98.75969308282219572,-16.50172715512980304,31.79808303310151985,0.71188403543900625,-0.00428945379597481,0.00630924271914656,0.70225559031560481,0.28222222222222221,0.00111111111111111,-0.00000000000000000,-0.20000000000000001,1.87000000000000011,9.69999999999999929,0.00000000000000000,0.00000000000000000,11.65911744000000105
1.14012312889099121,-98.79704067981948867,-16.49630004010293405,31.81825138535852560,0.71192559144360745,-0.00410544907801958,0.00641471959611924,0.70221360632505592,0.28222222222222221,0.00111111111111111,-0.00000000000000000,-0.20000000000000001,1.87000000000000011,9.69999999999999929,0.00000000000000000,0.00000000000000000,11.65911744000000105
1.15012931823730469,-98.70749751645307413,-16.46351455466423630,31.78460784907386483,0.71197768148327811,-0.00429318289098540,0.00612722517502690,0.70216223678151080,0.28222222222222221,0.00111111111111111,-0.00000000000000000,-0.20000000000000001,1.87000000000000011,9.69999999999999929,0.00000000000000000,0.00000000000000000,11.65911744000000105
1.16007494926452637,-98.73563454963750985,-16.47768716371894016,31.80322573879094605,0.71195931273114565,-0.00428699972638585,0.00618442812222580,0.70218039811542843,-0.00111111111111111,-0.28111111111111109,0.00111111111111111,-0.17999999999999999,1.85000000000000009,9.65000000000000036,0.00000000000000000,0.00000000000000000,11.65582390400000001
1.17006111145019531,-98.77176052759013203,-16.47933887800209618,31.85630183499087664,0.71192049346963004,-0.00418380854534075,0.00622810957203090,0.70221999215001929,-0.00111111111111111,-0.28111111111111109,0.00111111111111111,-0.17999999999999999,1.85000000000000009,9.65000000000000036,0.00000000000000000,0.00000000000000000,11.65582390400000001
1.18009781837463379,-98.77323692067834315,-16.47936633799105266,31.80788296438585050,0.71189972949498548,-0.00430264799055085,0.00623135340667355,0.70224029548293310,-0.00111111111111111,-0.28111111111111109,0.00111111111111111,-0.17999999999999999,1.85000000000000009,9.65000000000000036,0.00000000000000000,0.00000000000000000,11.65582390400000001
1.19014716148376465,-98.76834079889340501,-16.48527168265427534,31.79785646585589731,0.71193835586489873,-0.00433012276884797,0.00616483329202688,0.70220155391146266,-0.00111111111111111,-0.28111111111111109,0.00111111111111111,-0.17999999999999999,1.85000000000000009,9.65000000000000036,0.00000000000000000,0.00000000000000000,11.65582390400000001
1.20011901855468750,-98.67842475935219682,-16.46564087474472871,31.80727922980958056,0.71197263070652217,-0.00436302302024285,0.00609322488489224,0.70216722350552740,-0.28444444444444444,-0.00111111111111111,-0.00222222222222222,-0.20999999999999999,1.85000000000000009,9.71000000000000085,0.00000000000000000,0.00000000000000000,11.65582390400000001
1.21006917953491211,-98.78014493624483805,-16.48779631178627270,31.85297796539560622,0.71184949413890830,-0.00424728737891378,0.00619882615030246,0.70229184303853276,-0.28444444444444444,-0.00111111111111111,-0.00222222222222222,-0.20999999999999999,1.85000000000000009,9.71000000000000085,0.00000000000000000,0.00000000000000000,11.65582390400000001
1.22002124786376953,-98.76775209075817941,-16.47858002766696472,31.81510075487456390,0.71182683682853132,-0.00431572372062565,0.00631156987975538,0.70231338659113396,-0.28444444444444444,-0.00111111111111111,-0.00222222222222222,-0.20999999999999999,1.85000000000000009,9.71000000000000085,0.00000000000000000,0.00000000000000000,11.65582390400000001
1.23011064529418945,-98.76039513958777150,-16.48449088653121564,31.79947362524987042,0.71193546045808609,-0.00428857875847166,0.00624633804685823,0.70220402412373695,-0.28444444444444444,-0.00111111111111111,-0.00222222222222222,-0.20999999999999999,1.85000000000000009,9.71000000000000085,0.00000000000000000,0.00000000000000000,11.65582390400000001
1.24015307426452637,-98.66121329300916898,-16.48814328318394118,31.80998330360601400,0.71191760214759903,-0.00442376076580530,0.00610958568825925,0.70222249398308034,-0.28444444444444444,-0.00111111111111111,-0.00222222222222222,-0.20999999999999999,1.85000000000000009,9.71000000000000085,0.00000000000000000,0.00000000000000000,11.65582390400000001
1.25012397766113281,-98.68887262774372005,-16.47295444743643600,31.80058153465414605,0.71194676026755888,-0.00438928624429031,0.00609004894549951,0.70219331812160835,0.00111111111111111,-0.00000000000000000,-0.00222222222222222,-0.20000000000000001,1.86000000000000010,9.68999999999999950,0.00000000000000000,0.00000000000000000,11.63935622400000014
1.26011776924133301,-98.71802068353950688,-16.48908564160991475,31.84609251668082663,0.71188856979481485,-0.00434709528373376,0.00621541147865746,0.70225147605272986,0.00111111111111111,-0.00000000000000000,-0.00222222222222222,-0.20000000000000001,1.86000000000000010,9.68999999999999950,0.00000000000000000,0.00000000000000000,11.63935622400000014
1.27012515068054199,-98.74538048801530010,-16.47873211952903105,31.82520628838917887,0.71186314542981544,-0.00430471313352875,0.00616759457902059,0.70227793102212466,0.00111111111111111,-0.00000000000000000,-0.00222222222222222,-0.20000000000000001,1.86000000000000010,9.68999999999999950,0.00000000000000000,0.00000000000000000,11.63935622400000014
1.28018236160278320,-98.74017249738771795,-16.48271536511884605,31.84842010792802114,0.71189041139037446,-0.00423350214152869,0.00630303977716893,0.70224952212132408,0.00111111111111111,-0.00000000000000000,-0.00222222222222222,-0.20000000000000001,1.86000000000000010,9.68999999999999950,0.00000000000000000,0.00000000000000000,11.63935622400000014
1.29019403457641602,-98.76773360423328540,-16.51895052148411480,31.79040603648425645,0.71189635609529156,-0.00429066321906533,0.00634120852970716,0.70224280520470228,0.00111111111111111,-0.00000000000000000,-0.00222222222222222,-0.20000000000000001,1.86000000000000010,9.68999999999999950,0.00000000000000000,0.00000000000000000,11.63935622400000014
1.30018258094787598,-98.67808681144917671,-16.45881757424998071,31.80940307752348772,0.71194214841587056,-0.00443862980332343,0.00593618297743556,0.70219900142774450,0.00000000000000000,-0.00111111111111111,-0.00000000000000000,-0.20999999999999999,1.86000000000000010,9.64000000000000057,0.00000000000000000,0.00000000000000000,11.64923683199999971
1.31004595756530762,-98.73998058923662313,-16.49751303143496628,31.84246425436146311,0.71189084854872053,-0.00439445101450555,0.00604683043276978,0.70225034310748580,0.00000000000000000,-0.00111111111111111,-0.00000000000000000,-0.20999999999999999,1.86000000000000010,9.64000000000000057,0.00000000000000000,0.00000000000000000,11.64923683199999971
1.32002210617065430,-98.72260548613080289,-16.48857938636001919,31.86438599753184420,0.71188755949421234,-0.00433398839467462,0.00612891293604325,0.70225334147171659,0.00000000000000000,-0.00111111111111111,-0.00000000000000000,-0.20999999999999999,1.86000000000000010,9.64000000000000057,0.00000000000000000,0.00000000000000000,11.64923683199999971
1.33017635345458984,-98.72865292536978643,-16.46118474898567641,31.82591450888055462,0.71195757352307165,-0.00427587871869734,0.00613088519585751,0.70218269888330220,0.00000000000000000,-0.00111111111111111,-0.00000000000000000,-0.20999999999999999,1.86000000000000010,9.64000000000000057,0.00000000000000000,0.00000000000000000,11.64923683199999971
1.34020256996154785,-98.77088366451961576,-16.48826044633036148,31.84775425314694886,0.71189710635480441,-0.00420040103027908,0.00622441022566334,0.70224363529489042,0.00000000000000000,-0.00111111111111111,-0.00000000000000000,-0.20999999999999999,1.86000000000000010,9.64000000000000057,0.00000000000000000,0.00000000000000000,11.64923683199999971
1.35007071495056152,-98.71562308083082371,-16.47424372427717643,31.80360852358586499,0.71194209556920018,-0.00437693336468465,0.00609568476061623,0.70219807578642335,0.00111111111111111,-0.00111111111111111,-0.00111111111111111,-0.20000000000000001,1.85000000000000009,9.71000000000000085,0.00000000000000000,0.00000000000000000,11.63606268800000088
1.36016631126403809,-98.75639226084449263,-16.45380891979218774,31.78868972478538524,0.71195468642406323,-0.00433089761709240,0.00613034770380350,0.70218529366661830,0.00111111111111111,-0.00111111111111111,-0.00111111111111111,-0.20000000000000001,1.85000000000000009,9.71000000000000085,0.00000000000000000,0.00000000000000000,11.63606268800000088
1.37013673782348633,-98.73967304113257626,-16.47295655271693704,31.82566089489992578,0.71191166499440406,-0.00428282084303726,0.00621679728879990,0.70222844582229216,0.00111111111111111,-0.00111111111111111,-0.00111111111111111,-0.20000000000000001,1.85000000000000009,9.71000000000000085,0.00000000000000000,0.00000000000000000,11.63606268800000088
1.38013792037963867,-98.71217274844302381,-16.47076590116379791,31.83150319856359900,0.71187837398489662,-0.00428405337200571,0.00625379711457484,0.70226185825586118,0.00111111111111111,-0.00111111111111111,-0.00111111111111111,-0.20000000000000001,1.85000000000000009,9.71000000000000085,0.00000000000000000,0.00000000000000000,11.63606268800000088
1.39001131057739258,-98.79776010576733825,-16.46511074612590519,31.85124140018646699,0.71196839649474963,-0.00415477884145420,0.00615005083094726,0.70217228447173152,0.00111111111111111,-0.00111111111111111,-0.00111111111111111,-0.20000000000000001,1.85000000000000009,9.71000000000000085,0.00000000000000000,0.00000000000000000,11.63606268800000088
1.40005660057067871,-98.71160794972797703,-16.48066134401856431,31.80077010178136732,0.71193449379885188,-0.00434956266186083,0.00609269932599610,0.70220597893990200,-0.28444444444444444,0.00111111111111111,0.00111111111111111,-0.20999999999999999,1.86000000000000010,9.66000000000000014,0.00000000000000000,0.00000000000000000,11.63935622400000014
1.41002202033996582,-98.75860775024744953,-16.45073485339015562,31.87449815006530685,0.71195518606996322,-0.00427050611481232,0.00602787506153171,0.70218604409931840,-0.28444444444444444,0.00111111111111111,0.00111111111111111,-0.20999999999999999,1.86000000000000010,9.66000000000000014,0.00000000000000000,0.00000000000000000,11.63935622400000014
1.42004156112670898,-98.78522567628526474,-16.47154145166260619,31.82479132636011698,0.71193348129730105,-0.00424748319815087,0.00616168942116347,0.70220702835977389,-0.28444444444444444,0.00111111111111111,0.00111111111111111,-0.20999999999999999,1.86000000000000010,9.66000000000000014,0.00000000000000000,0.00000000000000000,11.63935622400000014
1.43005704879760742,-98.80283811677526273,-16.44071121513197653,31.85564384568908380,0.71191589220403750,-0.00420281080696689,0.00607016731322606,0.70222592652040361,-0.28444444444444444,0.00111111111111111,0.00111111111111111,-0.20999999999999999,1.86000000000000010,9.66000000000000014,0.00000000000000000,0.00000000000000000,11.63935622400000014
1.44001197814941406,-98.78082671766408396,-16.46284244204447944,31.83630421977272817,0.71199051183747597,-0.00415389686896205,0.00615352282177987,0.70214983468707926,0.00000000000000000,0.00111111111111111,-0.00111111111111111,-0.20000000000000001,1.86000000000000010,9.68999999999999950,0.00000000000000000,0.00000000000000000,11.64264976000000118
1.45009303092956543,-98.64727855401478962,-16.46683601877689185,31.83307092933679883,0.71198101509062484,-0.00441113222639570,0.00597502841609779,0.70215943709276707,0.00000000000000000,0.00111111111111111,-0.00111111111111111,-0.20000000000000001,1.86000000000000010,9.68999999999999950,0.00000000000000000,0.00000000000000000,11.64264976000000118
1.46004509925842285,-98.72923016814927166,-16.42409751818176034,31.84418512559775039,0.71197810382962490,-0.00425158691305602,0.00602769326758754,0.70216292310956196,0.00000000000000000,0.00111111111111111,-0.00111111111111111,-0.20000000000000001,1.86000000000000010,9.68999999999999950,0.00000000000000000,0.00000000000000000,11.64264976000000118
1.47011756896972656,-98.79716504856905601,-16.47712027671029844,31.78075924434739008,0.71194540193144873,-0.00429158352150540,0.00613869871065329,0.70219487562761740,0.00000000000000000,0.00111111111111111,-0.00111111111111111,-0.20000000000000001,1.86000000000000010,9.68999999999999950,0.00000000000000000,0.00000000000000000,11.64264976000000118
1.48004364967346191,-98.72479995059370594,-16.46907048400235496,31.83499119447938241,0.71189327420396642,-0.00433175016517227,0.00613951577619712,0.70224746950750638,0.00000000000000000,0.00111111111111111,-0.00111111111111111,-0.20000000000000001,1.86000000000000010,9.68999999999999950,0.00000000000000000,0.00000000000000000,11.64264976000000118
1.48998570442199707,-98.74178954595231517,-16.46594928386539181,31.84220942915059638,0.71194234953826419,-0.00425439752546720,0.00609317967143322,0.70219859313240085,0.00000000000000000,0.00111111111111111,-0.00111111111111111,-0.20000000000000001,1.86000000000000010,9.68999999999999950,0.00000000000000000,0.00000000000000000,11.64264976000000118
1.50003862380981445,-98.65029580598913128,-16.44944103971036498,31.81198543410515001,0.71197133444710459,-0.00439838140648455,0.00601597640324439,0.70216898336121947,0.00000000000000000,0.00111111111111111,-0.00111111111111111,-0.20000000000000001,1.86000000000000010,9.68999999999999950,0.00000000000000000,0.00000000000000000,11.64264976000000118
1.51003050804138184,-98.71850961732350527,-16.48752983102204794,31.82275983202424285,0.71193771272490614,-0.00437479656764767,0.00615671769469431,0.70220200026933011,0.00000000000000000,-0.00000000000000000,-0.00111111111111111,-0.20000000000000001,1.87000000000000011,9.61999999999999922,0.00000000000000000,0.00000000000000000,11.65911744000000105
1.52004647254943848,-98.78406496336462794,-16.44448581256823516,31.84001261397758853,0.71194398356281874,-0.00417190821127700,0.00617677018830444,0.70219670104652432,0.00000000000000000,-0.00000000000000000,-0.00111111111111111,-0.20000000000000001,1.87000000000000011,9.61999999999999922,0.00000000000000000,0.00000000000000000,11.65911744000000105
1.53007340431213379,-98.76359936483818558,-16.48404440080705768,31.83928110084085006,0.71193710359028428,-0.00429740821563607,0.00617684478914905,0.70220291896470755,0.00000000000000000,-0.00000000000000000,-0.00111111111111111,-0.20000000000000001,1.87000000000000011,9.61999999999999922,0.00000000000000000,0.00000000000000000,11.65911744000000105
1.54005503654479980,-98.76255046292278905,-16.49052881282256067,31.83690743598515738,0.71187918012936491,-0.00419810177833162,0.00633641963493780,0.70226081951509467,0.00000000000000000,-0.00000000000000000,-0.00111111111111111,-0.20000000000000001,1.87000000000000011,9.61999999999999922,0.00000000000000000,0.00000000000000000,11.65911744000000105
1.55007386207580566,-98.69487940688115657,-16.46882340196362549,31.78841311351371246,0.71196128864239150,-0.00433373227232451,0.00612717104885638,0.70217860976691360,0.00000000000000000,-0.00000000000000000,-0.00111111111111111,-0.20000000000000001,1.87000000000000011,9.61999999999999922,0.00000000000000000,0.00000000000000000,11.65911744000000105
1.56006336212158203,-98.79421860125601995,-16.44897198610053479,31.83615363207482574,0.71197957813790258,-0.00413218152115624,0.00622289072429193,0.70216043823437080,0.00000000000000000,-0.00000000000000000,-0.00000000000000000,-0.20000000000000001,1.86000000000000010,9.69999999999999929,0.00000000000000000,0.00000000000000000,11.65253036800000075
1.57012915611267090,-98.77636368153470414,-16.46227512398380455,31.81083327776316949,0.71191003082657400,-0.00422718491197562,0.00628220875709075,0.70222985750348077,0.00000000000000000,-0.00000000000000000,-0.00000000000000000,-0.20000000000000001,1.86000000000000010,9.69999999999999929,0.00000000000000000,0.00000000000000000,11.65253036800000075
1.58012914657592773,-98.79199644842803707,-16.45606402519098310,31.82636625473124070,0.71193136699500736,-0.00416222363584107,0.00626470704400557,0.70220877097105372,0.00000000000000000,-0.00000000000000000,-0.00000000000000000,-0.20000000000000001,1.86000000000000010,9.69999999999999929,0.00000000000000000,0.00000000000000000,11.65253036800000075
1.59015750885009766,-98.81217704082241937,-16.46496896846700864,31.82316716476273655,0.71198033780682068,-0.00401667588051874,0.00636399584176611,0.70215907346432682,0.00000000000000000,-0.00000000000000000,-0.00000000000000000,-0.20000000000000001,1.86000000000000010,9.69999999999999929,0.00000000000000000,0.00000000000000000,11.65253036800000075
1.60007977485656738,-98.67553385645534547,-16.46715533490415240,31.77309250425136256,0.71201700416014957,-0.00439532698558029,0.00607876259083515,0.70212215143296830,0.00111111111111111,-0.00000000000000000,-0.28222222222222221,-0.20000000000000001,1.86000000000000010,9.69999999999999929,0.00000000000000000,0.00000000000000000,11.65253036800000075
1.61004304885864258,-98.77892323302341993,-16.47358959125570266,31.81861549276861112,0.71195092581776542,-0.00427512305879628,0.00613443775847090,0.70218941263981349,0.00111111111111111,-0.00000000000000000,-0.28222222222222221,-0.20000000000000001,1.86000000000000010,9.69999999999999929,0.00000000000000000,0.00000000000000000,11.65253036800000075
1.62002182006835938,-98.77567286982194616,-16.48180174900058859,31.80728646556123707,0.71193217435647382,-0.00421811624910410,0.00629350071047731,0.70220736143975271,0.00111111111111111,-0.00000000000000000,-0.28222222222222221,-0.20000000000000001,1.86000000000000010,9.69999999999999929,0.00000000000000000,0.00000000000000000,11.65253036800000075
1.63008284568786621,-98.73485052490032388,-16.46100920852796179,31.81690228274976562,0.71198154234284949,-0.00424168053594055,0.00617834791423792,0.70215818696813515,0.00111111111111111,-0.00000000000000000,-0.28222222222222221,-0.20000000000000001,1.86000000000000010,9.69999999999999929,0.00000000000000000,0.00000000000000000,11.65253036800000075
1.64008474349975586,-98.66896804957440281,-16.48343251130730280,31.82108438879641810,0.71193326379415500,-0.00444059996952950,0.00602456821797424,0.70220724401924228,0.00111111111111111,-0.00000000000000000,-0.28222222222222221,-0.20000000000000001,1.86000000000000010,9.69999999999999929,0.00000000000000000,0.00000000000000000,11.65253036800000075
1.65012550354003906,-98.67644470505759102,-16.49034823829116547,31.80313939397190737,0.71194679338785871,-0.00441878200249812,0.00609152529433704,0.70219308674320358,0.00111111111111111,-0.00000000000000000,-0.28222222222222221,-0.20000000000000001,1.86000000000000010,9.69999999999999929,0.00000000000000000,0.00000000000000000,11.65253036800000075
1.66012024879455566,-98.70555612659040889,-16.48737267213823898,31.84728871076514523,0.71189890366986219,-0.00436124101881513,0.00619633356420665,0.70224108109735695,-0.00111111111111111,-0.28333333333333333,-0.00111111111111111,-0.19000000000000000,1.87000000000000011,9.64000000000000057,0.00000000000000000,0.00000000000000000,11.63606268800000088
1.67020821571350098,-98.63247583496321624,-16.51045584815141254,31.80537934928781851,0.71185470661435091,-0.00449549936246514,0.00613516601213857,0.70228557360555410,-0.00111111111111111,-0.28333333333333333,-0.00111111111111111,-0.19000000000000000,1.87000000000000011,9.64000000000000057,0.00000000000000000,0.00000000000000000,11.63606268800000088
1.68019938468933105,-98.71348002083500717,-16.48084615653743157,31.78847101929844499,0.71189994870247209,-0.00436651572123654,0.00623219640009655,0.70223967155516420,-0.00111111111111111,-0.28333333333333333,-0.00111111111111111,-0.19000000000000000,1.87000000000000011,9.64000000000000057,0.00000000000000000,0.00000000000000000,11.63606268800000088
1.69011998176574707,-98.78114126004952311,-16.50575010249411534,31.84093283593857038,0.71188850594771613,-0.00428745585288375,0.00626952421892838,0.70225142640503513,-0.00111111111111111,-0.28333333333333333,-0.00111111111111111,-0.19000000000000000,1.87000000000000011,9.64000000000000057,0.00000000000000000,0.00000000000000000,11.63606268800000088
1.70012402534484863,-98.62731223795314861,-16.48506287646265278,31.82445764564173274,0.71191241524680482,-0.00450756178995297,0.00605007077670414,0.70222773481810552,-0.28333333333333333,-0.00000000000000000,0.00111111111111111,-0.19000000000000000,1.85000000000000009,9.71000000000000085,0.00000000000000000,0.00000000000000000,11.64923683199999971
1.71018600463867188,-98.76539098092216307,-16.49945327496289238,31.83739287063804113,0.71187158658399707,-0.00442229477364062,0.00615834399202876,0.70226872514913630,-0.28333333333333333,-0.00000000000000000,0.00111111111111111,-0.19000000000000000,1.85000000000000009,9.71000000000000085,0.00000000000000000,0.00000000000000000,11.64923683199999971
1.72019743919372559,-98.71532994665183480,-16.51884311539263095,31.85034564094497611,0.71184329320962203,-0.00434470264901595,0.00634991067735738,0.70229618260799409,-0.28333333333333333,-0.00000000000000000,0.00111111111111111,-0.19000000000000000,1.85000000000000009,9.71000000000000085,0.00000000000000000,0.00000000000000000,11.64923683199999971
1.73008847236633301,-98.77058269790551037,-16.46614261929198264,31.82808989085706841,0.71193968167780619,-0.00417853901796689,0.00628013564636482,0.70220010635177399,-0.28333333333333333,-0.00000000000000000,0.00111111111111111,-0.19000000000000000,1.85000000000000009,9.71000000000000085,0.00000000000000000,0.00000000000000000,11.64923683199999971
1.74004626274108887,-98.74408215940950129,-16.50412144544366200,31.85262940996599568,0.71182176989360335,-0.00430940969166289,0.00638707474486099,0.70231787829290704,-0.28333333333333333,-0.00000000000000000,0.00111111111111111,-0.19000000000000000,1.85000000000000009,9.71000000000000085,0.00000000000000000,0.00000000000000000,11.64923683199999971
1.75018191337585449,-98.65186894082843594,-16.50660264831839541,31.85106387604116307,0.71184926897174627,-0.00443926606964548,0.00611246538044869,0.70229164094991592,0.00000000000000000,-0.00111111111111111,-0.00000000000000000,-0.19000000000000000,1.86000000000000010,9.71000000000000085,0.00000000000000000,0.00000000000000000,11.64923683199999971
1.76012349128723145,-98.70071828803038727,-16.46060664919806626,31.85521320542578039,0.71195471054631321,-0.00431133103929335,0.00609999834836234,0.70218565392333032,0.00000000000000000,-0.00111111111111111,-0.00000000000000000,-0.19000000000000000,1.86000000000000010,9.71000000000000085,0.00000000000000000,0.00000000000000000,11.64923683199999971
1.77012610435485840,-98.74947087914529220,-16.48332758200256620,31.81428821115157390,0.71193461359639576,-0.00432932203336082,0.00614467367651755,0.70220552968450134,0.00000000000000000,-0.00111111111111111,-0.00000000000000000,-0.19000000000000000,1.86000000000000010,9.71000000000000085,0.00000000000000000,0.00000000000000000,11.64923683199999971
1.78012967109680176,-98.76657656550447939,-16.44535777361793549,31.83606979487944955,0.71191894672855527,-0.00424873577107952,0.00611599790292176,0.70222215580463132,0.00000000000000000,-0.00111111111111111,-0.00000000000000000,-0.19000000000000000,1.86000000000000010,9.71000000000000085,0.00000000000000000,0.00000000000000000,11.64923683199999971
1.79012823104858398,-98.70849652943786623,-16.47862553060005197,31.81287960353902733,0.71188719259742006,-0.00439309427277090,0.00609691898080494,0.70225362463814733,0.00000000000000000,-0.00111111111111111,-0.00000000000000000,-0.19000000000000000,1.86000000000000010,9.71000000000000085,0.00000000000000000,0.00000000000000000,11.64923683199999971
1.80012726783752441,-98.67263271832273119,-16.45486702442584814,31.85867516308735148,0.71188617005309174,-0.00443438630767973,0.00595533309366752,0.70225561664749858,-0.00111111111111111,0.00222222222222222,0.00333333333333333,-0.20999999999999999,1.87000000000000011,9.66000000000000014,0.00000000000000000,0.00000000000000000,11.65582390400000001
1.81008005142211914,-98.69417070640365353,-16.47822014156047032,31.87591642322429308,0.71187751963205625,-0.00437335634264826,0.00611122943784668,0.70226342897204153,-0.00111111111111111,0.00222222222222222,0.00333333333333333,-0.20999999999999999,1.87000000000000011,9.66000000000000014,0.00000000000000000,0.00000000000000000,11.65582390400000001
1.82017612457275391,-98.73525776212953531,-16.45889927571395361,31.81980194532187056,0.71195067786446609,-0.00430920773506203,0.00611893384667490,0.70218959096927902,-0.00111111111111111,0.00222222222222222,0.00333333333333333,-0.20999999999999999,1.87000000000000011,9.66000000000000014,0.00000000000000000,0.00000000000000000,11.65582390400000001
1.83012557029724121,-98.74960458264548890,-16.48392145438489109,31.86522016406439306,0.71189923978199754,-0.00426729769449257,0.00621294945512025,0.70224117070082714,-0.00111111111111111,0.00222222222222222,0.00333333333333333,-0.20999999999999999,1.87000000000000011,9.66000000000000014,0.00000000000000000,0.00000000000000000,11.65582390400000001
1.84021091461181641,-98.72219202770197910,-16.50444240890934466,31.82506749372135246,0.71187733342210280,-0.00436618921143008,0.00619967122099680,0.70226288712159468,-0.00111111111111111,0.00222222222222222,0.00333333333333333,-0.20999999999999999,1.87000000000000011,9.66000000000000014,0.00000000000000000,0.00000000000000000,11.65582390400000001
1.85012412071228027,-98.69275826896580384,-16.48246396263106561,31.81020461713919545,0.71192176996482770,-0.00438874077931980,0.00610618678766415,0.70221851790410172,-0.00111111111111111,0.00222222222222222,0.00333333333333333,-0.20999999999999999,1.87000000000000011,9.66000000000000014,0.00000000000000000,0.00000000000000000,11.65582390400000001
1.86011409759521484,-98.73463388476579894,-16.47328706808282917,31.86031710882127399,0.71187309339374427,-0.00431092358245264,0.00615406378571062,0.70226792774468139,-0.00111111111111111,0.00222222222222222,0.00333333333333333,-0.20999999999999999,1.87000000000000011,9.66000000000000014,0.00000000000000000,0.00000000000000000,11.65582390400000001
1.87008786201477051,-98.72489580491223649,-16.46269102901978343,31.84767092926768228,0.71191449983333810,-0.00424603417491713,0.00615353140085860,0.70222635251899512,-0.00111111111111111,-0.00222222222222222,0.00222222222222222,-0.20000000000000001,1.85000000000000009,9.65000000000000036,0.00000000000000000,0.00000000000000000,11.63606268800000088
1.88002943992614746,-98.72726673191027658,-16.48458637543858174,31.84120307061762034,0.71190251025730933,-0.00430581916288326,0.00623355611912826,0.70223743747310108,-0.00111111111111111,-0.00222222222222222,0.00222222222222222,-0.20000000000000001,1.85000000000000009,9.65000000000000036,0.00000000000000000,0.00000000000000000,11.63606268800000088
1.89002919197082520,-98.71526382545623335,-16.50344391630119034,31.84490424502232386,0.71188958987660755,-0.00434067334532417,0.00618188757880367,0.70225077760454435,-0.00111111111111111,-0.00222222222222222,0.00222222222222222,-0.20000000000000001,1.85000000000000009,9.65000000000000036,0.00000000000000000,0.00000000000000000,11.63606268800000088
1.90004324913024902,-98.66814927906868604,-16.47636148922953936,31.77486268399813341,0.71192097177759672,-0.00448504629438800,0.00609451426446878,0.70221882002610836,-0.00111111111111111,-0.00444444444444444,-0.00000000000000000,-0.20000000000000001,1.87000000000000011,9.69999999999999929,0.00000000000000000,0.00000000000000000,11.63606268800000088
1.91001963615417480,-98.71440146330259324,-16.45395820677011756,31.83478832882648035,0.71188525191174323,-0.00432682566718954,0.00615717047347479,0.70225547768740137,-0.00111111111111111,-0.00444444444444444,-0.00000000000000000,-0.20000000000000001,1.87000000000000011,9.69999999999999929,0.00000000000000000,0.00000000000000000,11.63606268800000088
1.92002987861633301,-98.78770437236714486,-16.48972276225225642,31.83009623708921865,0.71186514321425687,-0.00423408531256573,0.00627144509928434,0.70227541561304729,-0.00111111111111111,-0.00444444444444444,-0.00000000000000000,-0.20000000000000001,1.87000000000000011,9.69999999999999929,0.00000000000000000,0.00000000000000000,11.63606268800000088
1.93004155158996582,-98.77432504355026310,-16.50295205303977397,31.80108285224961762,0.71190249599504041,-0.00434193125019342,0.00619761377162324,0.70223754770916913,-0.00111111111111111,-0.00444444444444444,-0.00000000000000000,-0.20000000000000001,1.87000000000000011,9.69999999999999929,0.00000000000000000,0.00000000000000000,11.63606268800000088
1.94002628326416016,-98.74628374789398322,-16.49395408942679353,31.83083510550679307,0.71190509982115857,-0.00425405690211968,0.00623852018031522,0.70223508365394216,-0.00111111111111111,-0.00444444444444444,-0.00000000000000000,-0.20000000000000001,1.87000000000000011,9.69999999999999929,0.00000000000000000,0.00000000000000000,11.63606268800000088
1.95002985000610352,-98.67724562255479270,-16.52034884610024434,31.81781288537423791,0.71188015347493849,-0.00441663734144893,0.00624689545204020,0.70225929449193036,-0.00111111111111111,-0.00444444444444444,-0.00000000000000000,-0.20000000000000001,1.87000000000000011,9.69999999999999929,0.00000000000000000,0.00000000000000000,11.63606268800000088
1.96003270149230957,-98.68722762301466389,-16.48857751021823859,31.84108018473245139,0.71193271976669681,-0.00432235709784246,0.00618830240347177,0.70220710952544163,-0.00111111111111111,-0.00444444444444444,-0.00000000000000000,-0.20000000000000001,1.87000000000000011,9.69999999999999929,0.00000000000000000,0.00000000000000000,11.63606268800000088
1.97002768516540527,-98.71652828219335163,-16.47584438356291869,31.82678518798562450,0.71191939956567929,-0.00427867281219737,0.00619645945237532,0.70222080955441935,0.00111111111111111,-0.00444444444444444,-0.00000000000000000,-0.20999999999999999,1.86000000000000010,9.59999999999999964,13.19999999999999929,13.19999999999999929,11.65911744000000105
1.98003840446472168,-98.79435279249780422,-16.42432442914472901,31.83920975428230449,0.71193365105701012,-0.00411900657460060,0.00614111774137868,0.70220780182960107,0.00111111111111111,-0.00444444444444444,-0.00000000000000000,-0.20999999999999999,1.86000000000000010,9.59999999999999964,13.19999999999999929,13.19999999999999929,11.65911744000000105
1.99001097679138184,-98.78375944987480750,-16.37725951764338106,31.87195468920016594,0.71162238461691751,-0.00422047026571508,0.00614100219350429,0.70252263837895468,0.00111111111111111,-0.00444444444444444,-0.00000000000000000,-0.20999999999999999,1.86000000000000010,9.59999999999999964,13.19999999999999929,13.19999999999999929,11.65911744000000105
1.99999141693115234,-98.76856044285898406,-16.17481693286056910,31.90925207535140729,0.71121842103954813,-0.00415615104792447,0.00598647592449356,0.70293331553461291,0.00111111111111111,-0.00444444444444444,-0.00000000000000000,-0.20999999999999999,1.86000000000000010,9.59999999999999964,13.19999999999999929,13.19999999999999929,11.65911744000000105
2.01005816459655762,-98.91402494665423717,-15.80015786214874396,31.97807488088793448,0.71082720904248076,-0.00371079264247439,0.00591811939660739,0.70333198758882665,-0.00111111111111111,-0.00000000000000000,-0.00000000000000000,-0.28000000000000003,2.04000000000000004,9.66000000000000014,33.50000000000000000,33.50000000000000000,11.65911744000000105
2.02000951766967773,-98.83517020683318322,-15.38483844182665017,32.08795202247233647,0.71054390208036344,-0.00364958597349556,0.00585374803097151,0.70361905699932736,-0.00111111111111111,-0.00000000000000000,-0.00000000000000000,-0.28000000000000003,2.04000000000000004,9.66000000000000014,33.50000000000000000,33.50000000000000000,11.65911744000000105
2.03005814552307129,-98.76816216847343810,-14.56097133607020133,32.15749250086768285,0.71047385680986530,-0.00344751314474429,0.00565257424554146,0.70369244833750388,-0.00111111111111111,-0.00000000000000000,-0.00000000000000000,-0.28000000000000003,2.04000000000000004,9.66000000000000014,33.50000000000000000,33.50000000000000000,11.65911744000000105
2.04000878334045410,-98.80444875966462348,-13.50244321800033731,32.16865285555191889,0.71042705932487171,-0.00331153235241091,0.00550504447709866,0.70374151619596748,-0.00111111111111111,-0.00000000000000000,-0.00000000000000000,-0.28000000000000003,2.04000000000000004,9.66000000000000014,33.50000000000000000,33.50000000000000000,11.65911744000000105
2.05002665519714355,-98.75725299670000368,-12.45218286624018056,32.13121464948556394,0.71033946250249513,-0.00353026550391061,0.00565074813619305,0.70382771633592245,-0.00111111111111111,-0.00000000000000000,-0.00000000000000000,-0.28000000000000003,2.04000000000000004,9.66000000000000014,33.50000000000000000,33.50000000000000000,11.65911744000000105
2.06002521514892578,-98.80073380899004576,-10.86981919741605651,32.27220001727586407,0.71033525796375496,-0.00306359124981488,0.00541703577767522,0.70383598332679909,0.00555555555555556,-0.14555555555555555,0.07333333333333333,3.39999999999999991,1.67999999999999994,9.92999999999999972,46.20000000000000284,46.20000000000000284,11.58995318400000052
2.07005453109741211,-98.52511048864975862,-9.13349888823202605,32.26756751926870237,0.71027366641413869,-0.00321372057608652,0.00510051541991684,0.70389983345723761,0.00555555555555556,-0.14555555555555555,0.07333333333333333,3.39999999999999991,1.67999999999999994,9.92999999999999972,46.20000000000000284,46.20000000000000284,11.58995318400000052
2.08005785942077637,-98.54568000572926678,-7.38610324533467111,32.13324179157002192,0.71019427706802429,-0.00309949057413119,0.00520420983616075,0.70397968591287396,0.00555555555555556,-0.14555555555555555,0.07333333333333333,3.39999999999999991,1.67999999999999994,9.92999999999999972,46.20000000000000284,46.20000000000000284,11.58995318400000052
2.09002733230590820,-98.53486618797099084,-5.04922897462674580,32.21503949922546894,0.71017280502541558,-0.00282384119881872,0.00521088800620140,0.70400245707625453,0.00555555555555556,-0.14555555555555555,0.07333333333333333,3.39999999999999991,1.67999999999999994,9.92999999999999972,46.20000000000000284,46.20000000000000284,11.58995318400000052
2.10004329681396484,-98.51184573089405205,-2.80231333020925177,32.24357648866045878,0.70971659297688139,-0.00304639332898422,0.00493164180704023,0.70446345260067245,0.00333333333333333,-0.10444444444444445,0.01333333333333333,3.47000000000000020,1.79000000000000004,8.75000000000000000,48.39999999999999858,48.39999999999999858,11.59654025600000082
2.11002826690673828,-98.61777109257950258,-0.00657938255977323,32.26198707447911573,0.70959586878367653,-0.00266221392450645,0.00465793332850360,0.70458847512520839,0.00333333333333333,-0.10444444444444445,0.01333333333333333,3.47000000000000020,1.79000000000000004,8.75000000000000000,48.39999999999999858,48.39999999999999858,11.59654025600000082
2.12004184722900391,-98.55800346061988648,2.63903618288142416,32.30032993339563063,0.70950234565542136,-0.00255334419137403,0.00474719055434327,0.70468245765361293,0.00333333333333333,-0.10444444444444445,0.01333333333333333,3.47000000000000020,1.79000000000000004,8.75000000000000000,48.39999999999999858,48.39999999999999858,11.59654025600000082
2.13003921508789062,-98.42390535635996685,5.85274835867144549,32.34807239101518661,0.70943021919208704,-0.00248204547093081,0.00427457729463380,0.70475834974571216,0.00333333333333333,-0.10444444444444445,0.01333333333333333,3.47000000000000020,1.79000000000000004,8.75000000000000000,48.39999999999999858,48.39999999999999858,11.59654025600000082
2.13998889923095703,-98.45635531601965340,9.11974912624058298,32.42881344842815849,0.70916698548865897,-0.00235264602323045,0.00412625297215584,0.70502455686736698,0.00333333333333333,-0.10444444444444445,0.01333333333333333,3.47000000000000020,1.79000000000000004,8.75000000000000000,48.39999999999999858,48.39999999999999858,11.59654025600000082
2.15001368522644043,-98.38881674130992394,11.99193429552792622,32.25637882764031161,0.70897443462985466,-0.00236921678598681,0.00406238026977465,0.70521850154377153,0.01777777777777778,-0.04000000000000000,0.03444444444444444,4.33000000000000007,1.62999999999999989,9.10999999999999943,48.39999999999999858,48.39999999999999858,11.64264976000000118
2.16001152992248535,-98.34139497959490939,15.45375301815864333,32.12655811363715230,0.70880987036709342,-0.00246927458417785,0.00373178903455566,0.70538538693668296,0.01777777777777778,-0.04000000000000000,0.03444444444444444,4.33000000000000007,1.62999999999999989,9.10999999999999943,48.39999999999999858,48.39999999999999858,11.64264976000000118
2.17003822326660156,-98.22590685894601847,18.49513670122800946,32.16131158403808143,0.70881463006017087,-0.00243539387745662,0.00357978215296950,0.70538150970170888,0.01777777777777778,-0.04000000000000000,0.03444444444444444,4.33000000000000007,1.62999999999999989,9.10999999999999943,48.39999999999999858,48.39999999999999858,11.64264976000000118
2.18004012107849121,-98.24022850125750494,21.73759704766285950,32.19562936635082195,0.70884012147042841,-0.00267085070428839,0.00377138403000486,0.70535404260045287,0.01777777777777778,-0.04000000000000000,0.03444444444444444,4.33000000000000007,1.62999999999999989,9.10999999999999943,48.39999999999999858,48.39999999999999858,11.64264976000000118
2.19002747535705566,-98.33204281075632025,25.06837344723499328,32.17737808347933282,0.70859953160994238,-0.00246550797931091,0.00404615911715484,0.70559496431662083,0.01777777777777778,-0.04000000000000000,0.03444444444444444,4.33000000000000007,1.62999999999999989,9.10999999999999943,48.39999999999999858,48.39999999999999858,11.64264976000000118
2.20003318786621094,-98.21309769056585992,28.07810590954308694,32.01896530842093824,0.70847606380431860,-0.00252564814703556,0.00433789110759844,0.70571699059787085,-0.03222222222222222,0.09777777777777778,0.03000000000000000,-0.68999999999999995,2.72000000000000020,10.31000000000000050,48.39999999999999858,48.39999999999999858,11.68546572800000050
2.21001172065734863,-98.23334627174317291,31.44356790519372780,32.02925829618747144,0.70829867456747553,-0.00236834113062720,0.00442817903113784,0.70589501329639237,-0.03222222222222222,0.09777777777777778,0.03000000000000000,-0.68999999999999995,2.72000000000000020,10.31000000000000050,48.39999999999999858,48.39999999999999858,11.68546572800000050
2.22002053260803223,-98.25700790842363119,34.41574020872294426,32.00604327146474759,0.70799602807387274,-0.00257648995751682,0.00421542366992971,0.70619913348460139,-0.03222222222222222,0.09777777777777778,0.03000000000000000,-0.68999999999999995,2.72000000000000020,10.31000000000000050,48.39999999999999858,48.39999999999999858,11.68546572800000050
2.23006343841552734,-98.34290284847038777,37.84527186542725730,31.88642315121524007,0.70790016636339781,-0.00267970309027071,0.00462679806182914,0.70629226697856218,-0.03222222222222222,0.09777777777777778,0.03000000000000000,-0.68999999999999995,2.72000000000000020,10.31000000000000050,48.39999999999999858,48.39999999999999858,11.68546572800000050
2.24002075195312500,-98.28733128918138107,41.24759460643790732,31.95568063560143557,0.70778074019075465,-0.00261545232245543,0.00427079633190566,0.70641442760101336,-0.03222222222222222,0.09777777777777778,0.03000000000000000,-0.68999999999999995,2.72000000000000020,10.31000000000000050,48.39999999999999858,48.39999999999999858,11.68546572800000050
2.25002837181091309,-98.16950182805248915,44.33451553720689731,32.02016616628412038,0.70763307551000498,-0.00275234779972209,0.00413339241245842,0.70656264413921921,0.00000000000000000,0.01666666666666667,0.06444444444444444,-0.67000000000000004,2.79000000000000004,9.10999999999999943,48.39999999999999858,48.39999999999999858,11.62618208000000131
2.26003336906433105,-98.19539252430975296,47.80891161893308094,32.06901506749105835,0.70746113861179594,-0.00277139676545191,0.00414224719004243,0.70673467334091233,0.00000000000000000,0.01666666666666667,0.06444444444444444,-0.67000000000000004,2.79000000000000004,9.10999999999999943,48.39999999999999858,48.39999999999999858,11.62618208000000131
2.26999473571777344,-98.20769349009877658,50.80744329454022790,32.06500560663531019,0.70727049318614987,-0.00289247005050872,0.00401979871523073,0.70692568513494858,0.00000000000000000,0.01666666666666667,0.06444444444444444,-0.67000000000000004,2.79000000000000004,9.10999999999999943,48.39999999999999858,48.39999999999999858,11.62618208000000131
2.28006100654602051,-98.24797861170118551,54.18173619908873206,32.12552438613804640,0.70715336449112687,-0.00292263644468109,0.00408020069358581,0.70704238150721321,0.00000000000000000,0.01666666666666667,0.06444444444444444,-0.67000000000000004,2.79000000000000004,9.10999999999999943,48.39999999999999858,48.39999999999999858,11.62618208000000131
2.29008007049560547,-98.18550815721323488,57.21534303601115568,32.09514472235576221,0.70710176914310008,-0.00306872924810996,0.00384149203683504,0.70709469939636138,0.00000000000000000,0.01666666666666667,0.06444444444444444,-0.67000000000000004,2.79000000000000004,9.10999999999999943,48.39999999999999858,48.39999999999999858,11.62618208000000131
2.30004978179931641,-98.16081184142478833,60.67108165251280383,32.08128352748529721,0.70679448092254460,-0.00288064206561346,0.00414226191510877,0.70740095087930677,-0.00888888888888889,-0.00888888888888889,0.04666666666666667,-0.88000000000000000,2.08999999999999986,9.76999999999999957,90.00000000000000000,90.00000000000000000,11.64264976000000118
2.31005072593688965,-98.17479982573195230,64.02391350972273187,32.21069630606290701,0.70639930162301579,-0.00290684163060667,0.00381526294157477,0.70779730199184621,-0.00888888888888889,-0.00888888888888889,0.04666666666666667,-0.88000000000000000,2.08999999999999986,9.76999999999999957,90.00000000000000000,90.00000000000000000,11.64264976000000118
2.32001590728759766,-98.14291710316051365,67.37078890669035047,32.35354413988723365,0.70637918719990933,-0.00281795114271244,0.00361758606242766,0.70781877349589506,-0.00888888888888889,-0.00888888888888889,0.04666666666666667,-0.88000000000000000,2.08999999999999986,9.76999999999999957,90.00000000000000000,90.00000000000000000,11.64264976000000118
2.33010315895080566,-98.12015712061331385,71.28540978568072717,32.20285888022426235,0.70620461104856314,-0.00283209626126296,0.00372177506701968,0.70799235515284020,-0.00888888888888889,-0.00888888888888889,0.04666666666666667,-0.88000000000000000,2.08999999999999986,9.76999999999999957,90.00000000000000000,90.00000000000000000,11.64264976000000118
2.34007906913757324,-98.37384667401128979,75.34997579079221453,32.26119629509057773,0.70596244708590772,-0.00227167501458927,0.00426972007492429,0.70823275290513543,-0.00888888888888889,-0.00888888888888889,0.04666666666666667,-0.88000000000000000,2.08999999999999986,9.76999999999999957,90.00000000000000000,90.00000000000000000,11.64264976000000118
2.35010671615600586,-98.24308448179938580,79.35023694251565018,32.42338717822642025,0.70601884982925289,-0.00259456866230569,0.00354316316952381,0.70817942492986130,0.04111111111111111,-0.11444444444444445,0.08222222222222222,8.16999999999999993,2.41999999999999993,7.78000000000000025,90.00000000000000000,90.00000000000000000,11.48785356800000024
2.36007761955261230,-98.26797212569674400,83.83378991126438962,32.33388709844962250,0.70593275671947919,-0.00297403971011872,0.00360228983316987,0.70826345492775289,0.04111111111111111,-0.11444444444444445,0.08222222222222222,8.16999999999999993,2.41999999999999993,7.78000000000000025,90.00000000000000000,90.00000000000000000,11.48785356800000024
2.37011766433715820,-98.23630514623027921,88.35037474224968435,32.55167245206508397,0.70599166371922828,-0.00265489977030292,0.00313228641317310,0.70820823988992931,0.04111111111111111,-0.11444444444444445,0.08222222222222222,8.16999999999999993,2.41999999999999993,7.78000000000000025,90.00000000000000000,90.00000000000000000,11.48785356800000024
2.38009214401245117,-98.15380848112532419,93.44103497291676774,32.40209413470699218,0.70599747170207117,-0.00277066343060205,0.00326479618315046,0.70820140813212196,0.04111111111111111,-0.11444444444444445,0.08222222222222222,8.16999999999999993,2.41999999999999993,7.78000000000000025,90.00000000000000000,90.00000000000000000,11.48785356800000024
2.39018464088439941,-98.31006495608305329,98.90293447701253626,32.31063421664764945,0.70592743951065162,-0.00266508920825947,0.00352017671427938,0.70827039737754649,0.04111111111111111,-0.11444444444444445,0.08222222222222222,8.16999999999999993,2.41999999999999993,7.78000000000000025,90.00000000000000000,90.00000000000000000,11.48785356800000024
2.40008115768432617,-98.29692099289479756,103.97000283730471892,32.37197475156029469,0.70567523527707277,-0.00276210199695980,0.00317511616899468,0.70852293664109378,-0.07555555555555556,-0.09666666666666666,0.01777777777777778,2.35000000000000009,1.00000000000000000,7.62000000000000011,90.00000000000000000,90.00000000000000000,11.42856992000000105
2.41017341613769531,-98.29393018887886058,110.07246730213283570,32.48410425727255557,0.70552152550459946,-0.00266510549451638,0.00313275412616769,0.70867655535790897,-0.07555555555555556,-0.09666666666666666,0.01777777777777778,2.35000000000000009,1.00000000000000000,7.62000000000000011,90.00000000000000000,90.00000000000000000,11.42856992000000105
2.42007064819335938,-98.37860221736191590,115.53279075343111515,32.48165302272767008,0.70553888262291231,-0.00282896243147412,0.00285084220545176,0.70865983008598221,-0.07555555555555556,-0.09666666666666666,0.01777777777777778,2.35000000000000009,1.00000000000000000,7.62000000000000011,90.00000000000000000,90.00000000000000000,11.42856992000000105
2.43007302284240723,-98.29236139240526882,121.71109526598793593,32.36887697707925327,0.70554977776194816,-0.00277980261154820,0.00300788707240978,0.70864852812439161,-0.07555555555555556,-0.09666666666666666,0.01777777777777778,2.35000000000000009,1.00000000000000000,7.62000000000000011,90.00000000000000000,90.00000000000000000,11.42856992000000105
2.44003677368164062,-98.12451772702945618,127.42324046652704794,32.43513621274646397,0.70558301382075872,-0.00289076323080682,0.00264429395267630,0.70861644195223850,-0.07555555555555556,-0.09666666666666666,0.01777777777777778,2.35000000000000009,1.00000000000000000,7.62000000000000011,90.00000000000000000,90.00000000000000000,11.42856992000000105
2.45006060600280762,-98.17677798630533914,133.82620897419423045,32.40731853668023632,0.70521362040575941,-0.00280879307985375,0.00254397794890152,0.70898475897005808,-0.08555555555555555,-0.11444444444444445,0.01222222222222222,-1.65999999999999992,1.02000000000000002,5.86000000000000032,90.00000000000000000,90.00000000000000000,11.56360489600000108
2.46003341674804688,-98.30474221383428812,140.33731590863058614,32.60574122356799620,0.70468210503006579,-0.00307090668269936,0.00218538192193432,0.70951316019394395,-0.08555555555555555,-0.11444444444444445,0.01222222222222222,-1.65999999999999992,1.02000000000000002,5.86000000000000032,90.00000000000000000,90.00000000000000000,11.56360489600000108
2.47001338005065918,-98.17580336745936620,146.10906841586515270,32.41882007259662402,0.70432830860589302,-0.00341821561230227,0.00234083267936425,0.70986228946236929,-0.08555555555555555,-0.11444444444444445,0.01222222222222222,-1.65999999999999992,1.02000000000000002,5.86000000000000032,90.00000000000000000,90.00000000000000000,11.56360489600000108
2.48004698753356934,-98.10931263542197200,152.79151990046375431,32.30407581622957736,0.70393299883249949,-0.00342084627487770,0.00237038090208296,0.71025418848453603,-0.08555555555555555,-0.11444444444444445,0.01222222222222222,-1.65999999999999992,1.02000000000000002,5.86000000000000032,90.00000000000000000,90.00000000000000000,11.56360489600000108
2.49004817008972168,-98.24532211565485795,159.35137983373189741,32.26833006326778985,0.70367978930016284,-0.00384235440729067,0.00223183720643895,0.71050334928540015,-0.08555555555555555,-0.11444444444444445,0.01222222222222222,-1.65999999999999992,1.02000000000000002,5.86000000000000032,90.00000000000000000,90.00000000000000000,11.56360489600000108
2.50001072883605957,-98.28412195371875271,165.26325958145608297,32.33460747569210980,0.70324500403624990,-0.00372718583950287,0.00201092832641607,0.71093496787754018,-0.04333333333333333,0.01888888888888889,0.10666666666666667,0.59999999999999998,1.45999999999999996,10.10999999999999943,90.00000000000000000,90.00000000000000000,11.61300793600000070
2.51003336906433105,-98.27488990843419003,171.93932142427320287,32.39222332890010847,0.70279042062329411,-0.00386435102358697,0.00155503018120420,0.71138475760479669,-0.04333333333333333,0.01888888888888889,0.10666666666666667,0.59999999999999998,1.45999999999999996,10.10999999999999943,90.00000000000000000,90.00000000000000000,11.61300793600000070
2.52001810073852539,-98.18776224124837881,177.57498537480546474,32.14511255278890900,0.70247743452908662,-0.00407751492163078,0.00215756668486971,0.71169106553019001,-0.04333333333333333,0.01888888888888889,0.10666666666666667,0.59999999999999998,1.45999999999999996,10.10999999999999943,90.00000000000000000,90.00000000000000000,11.61300793600000070
2.53016710281372070,-98.28694663434681900,184.25362750178297233,32.37173285281195234,0.70186333168391257,-0.00405994914988838,0.00244365252300025,0.71229587182069565,-0.04333333333333333,0.01888888888888889,0.10666666666666667,0.59999999999999998,1.45999999999999996,10.10999999999999943,90.00000000000000000,90.00000000000000000,11.61300793600000070
2.54017114639282227,-98.38327285166930380,190.76670092670096324,32.38491765430803326,0.70130920243050909,-0.00407777591065147,0.00253132366090295,0.71284105292163813,-0.04333333333333333,0.01888888888888889,0.10666666666666667,0.59999999999999998,1.45999999999999996,10.10999999999999943,90.00000000000000000,90.00000000000000000,11.61300793600000070
2.55017280578613281,-98.51799532898314737,196.84317591101989819,32.21762993151406107,0.70116063291252428,-0.00361249113524028,0.00249992804296968,0.71298980856761596,-0.00666666666666667,-0.01222222222222222,0.11333333333333333,1.98999999999999999,1.63999999999999990,14.11999999999999922,90.00000000000000000,90.00000000000000000,11.61959500800000100
2.56008768081665039,-98.62504361214956816,203.39834342905487574,32.40985390165272406,0.70042058093101411,-0.00384722426870364,0.00237864783827930,0.71371601544882601,-0.00666666666666667,-0.01222222222222222,0.11333333333333333,1.98999999999999999,1.63999999999999990,14.11999999999999922,90.00000000000000000,90.00000000000000000,11.61959500800000100
2.57020115852355957,-98.76828752566302683,209.23090579619542950,32.34806596662033229,0.69993573303395828,-0.00408807379516769,0.00256064593629979,0.71418954092541143,-0.00666666666666667,-0.01222222222222222,0.11333333333333333,1.98999999999999999,1.63999999999999990,14.11999999999999922,90.00000000000000000,90.00000000000000000,11.61959500800000100
2.58020281791687012,-98.86242288222365460,215.85311218735125749,32.26049615285004535,0.69954999193468914,-0.00393709277973675,0.00240728151198861,0.71456876021859705,-0.00666666666666667,-0.01222222222222222,0.11333333333333333,1.98999999999999999,1.63999999999999990,14.11999999999999922,90.00000000000000000,90.00000000000000000,11.61959500800000100
2.59004473686218262,-99.08485955486109731,222.52844973207893986,32.21125596460053231,0.69921335648657079,-0.00375017167009293,0.00230142696128605,0.71489951864382384,-0.00666666666666667,-0.01222222222222222,0.11333333333333333,1.98999999999999999,1.63999999999999990,14.11999999999999922,90.00000000000000000,90.00000000000000000,11.61959500800000100
2.60002470016479492,-99.08832769216189718,228.39599865489967101,32.21599100311100727,0.69891229528825005,-0.00390317108175063,0.00248027886199531,0.71519243352204398,-0.04666666666666667,0.01777777777777778,0.13444444444444445,2.29000000000000004,1.22999999999999998,9.32000000000000028,90.00000000000000000,90.00000000000000000,11.62618208000000131
2.61003565788269043,-99.18511267927517849,235.01293761966280726,32.04146519650585390,0.69847135952580264,-0.00397023152101238,0.00231323473993121,0.71562325711849561,-0.04666666666666667,0.01777777777777778,0.13444444444444445,2.29000000000000004,1.22999999999999998,9.32000000000000028,90.00000000000000000,90.00000000000000000,11.62618208000000131
2.62004899978637695,-99.41572998590652332,241.13371017619047620,32.21423513421902385,0.69792326197906707,-0.00351394205784820,0.00211896157708971,0.71616079381766462,-0.04666666666666667,0.01777777777777778,0.13444444444444445,2.29000000000000004,1.22999999999999998,9.32000000000000028,90.00000000000000000,90.00000000000000000,11.62618208000000131
2.63004517555236816,-99.63083791295746039,247.54525518542723717,32.11388086615743731,0.69738758572367199,-0.00383428203139777,0.00241361994101574,0.71667986437362108,-0.04666666666666667,0.01777777777777778,0.13444444444444445,2.29000000000000004,1.22999999999999998,9.32000000000000028,90.00000000000000000,90.00000000000000000,11.62618208000000131
2.64002680778503418,-99.82141051110555452,254.31738672499270137,32.12982447667733510,0.69680987908631142,-0.00378454541571408,0.00192217768874315,0.71724331635550942,-0.04666666666666667,0.01777777777777778,0.13444444444444445,2.29000000000000004,1.22999999999999998,9.32000000000000028,90.00000000000000000,90.00000000000000000,11.62618208000000131
2.65010571479797363,-99.56178855400878547,260.30699770935092374,32.33584968369047630,0.69669284035213119,-0.00374527990592041,0.00126974132329946,0.71735865983305602,-0.00777777777777778,0.05000000000000000,0.13111111111111112,-2.06000000000000005,3.06999999999999984,14.07000000000000028,90.00000000000000000,90.00000000000000000,11.62618208000000131
2.66011643409729004,-100.13699270769025418,266.76492060285710295,31.92980861323701447,0.69612389965888155,-0.00368031843511143,0.00143351655334032,0.71791079989802287,-0.00777777777777778,0.05000000000000000,0.13111111111111112,-2.06000000000000005,3.06999999999999984,14.07000000000000028,90.00000000000000000,90.00000000000000000,11.62618208000000131
2.67011976242065430,-100.34891930890364620,272.78112997236434012,31.78433356177538371,0.69558471049474269,-0.00362560727037504,0.00130930891573931,0.71843374865608123,-0.00777777777777778,0.05000000000000000,0.13111111111111112,-2.06000000000000005,3.06999999999999984,14.07000000000000028,90.00000000000000000,90.00000000000000000,11.62618208000000131
2.68013215065002441,-100.32945347551581960,279.26342479184921785,31.77755609024186256,0.69526896166574315,-0.00407858868227947,0.00142443887657046,0.71873667433385280,-0.00777777777777778,0.05000000000000000,0.13111111111111112,-2.06000000000000005,3.06999999999999984,14.07000000000000028,90.00000000000000000,90.00000000000000000,11.62618208000000131
2.69012069702148438,-100.61140006360672317,285.90935347184364446,31.85526929962272291,0.69479834551056885,-0.00322406223703751,0.00191242115951176,0.71919483253411742,-0.00777777777777778,0.05000000000000000,0.13111111111111112,-2.06000000000000005,3.06999999999999984,14.07000000000000028,90.00000000000000000,90.00000000000000000,11.62618208000000131
2.70014810562133789,-101.01086160359045607,291.69188565020164106,31.63167182214554529,0.69419870240348625,-0.00339290361599572,0.00232828130266455,0.71977165052018000,0.06666666666666667,-0.02444444444444445,0.15111111111111111,-0.87000000000000000,4.09999999999999964,10.25000000000000000,90.00000000000000000,90.00000000000000000,11.59983379200000009
2.71008324623107910,-100.85159390531032386,298.40964630131338708,31.72276131786907172,0.69414290718698102,-0.00339831600646561,0.00200780580025357,0.71982639890892797,0.06666666666666667,-0.02444444444444445,0.15111111111111111,-0.87000000000000000,4.09999999999999964,10.25000000000000000,90.00000000000000000,90.00000000000000000,11.59983379200000009
2.72009921073913574,-101.01058317576990930,304.35155345491034495,31.48420979325456415,0.69391476038856059,-0.00290341106380036,0.00275172717318225,0.72004604263661187,0.06666666666666667,-0.02444444444444445,0.15111111111111111,-0.87000000000000000,4.09999999999999964,10.25000000000000000,90.00000000000000000,90.00000000000000000,11.59983379200000009
2.73004889488220215,-101.45251320251914251,310.89000292475526521,31.49816236519496826,0.69322477205110289,-0.00264431498984003,0.00304401726276832,0.72071017543242388,0.06666666666666667,-0.02444444444444445,0.15111111111111111,-0.87000000000000000,4.09999999999999964,10.25000000000000000,90.00000000000000000,90.00000000000000000,11.59983379200000009
2.74005460739135742,-101.62081842815693733,317.44548308602117004,31.48569536675526237,0.69306689970606006,-0.00229800048541190,0.00348219548649832,0.72086119748547473,0.06666666666666667,-0.02444444444444445,0.15111111111111111,-0.87000000000000000,4.09999999999999964,10.25000000000000000,90.00000000000000000,90.00000000000000000,11.59983379200000009
2.75003337860107422,-101.73934222797186067,323.36383358239550034,31.48523719985135827,0.69262328425985642,-0.00281398546766118,0.00249233272703149,0.72128971701006206,-0.25555555555555554,0.02444444444444445,0.12111111111111111,-1.08000000000000007,1.50000000000000000,7.83000000000000007,90.00000000000000000,90.00000000000000000,11.62618208000000131
2.76001644134521484,-102.04713301037349993,329.94947935779879344,31.66083145542418364,0.69185231316975260,-0.00279465681908927,0.00277957078034810,0.72202828243857786,-0.25555555555555554,0.02444444444444445,0.12111111111111111,-1.08000000000000007,1.50000000000000000,7.83000000000000007,90.00000000000000000,90.00000000000000000,11.62618208000000131
2.77007985115051270,-102.16008953570189988,335.93432062162725060,31.90343385443883051,0.69155654216412743,-0.00181981595046282,0.00251834171532410,0.72231564790948999,-0.25555555555555554,0.02444444444444445,0.12111111111111111,-1.08000000000000007,1.50000000000000000,7.83000000000000007,90.00000000000000000,90.00000000000000000,11.62618208000000131
2.78005790710449219,-102.68297652741337345,342.52144347757774767,31.74117666478760569,0.69104667793136143,-0.00143395515972112,0.00341615031838160,0.72280063821888751,-0.25555555555555554,0.02444444444444445,0.12111111111111111,-1.08000000000000007,1.50000000000000000,7.83000000000000007,90.00000000000000000,90.00000000000000000,11.62618208000000131
2.79016351699829102,-103.01979078086488073,349.00656358513083433,31.34271159873573609,0.69045880795363779,-0.00187007471316141,0.00387707963931771,0.72335890510401479,-0.25555555555555554,0.02444444444444445,0.12111111111111111,-1.08000000000000007,1.50000000000000000,7.83000000000000007,90.00000000000000000,90.00000000000000000,11.62618208000000131
2.80018281936645508,-103.15253115345227286,354.88358646265265861,31.25335376721580971,0.69026195483889075,-0.00254509858217700,0.00354791546324197,0.72354638308201480,0.01111111111111111,0.01444444444444444,0.13222222222222221,-1.46999999999999997,2.00000000000000000,9.15000000000000036,90.00000000000000000,90.00000000000000000,11.61300793600000070
2.81011748313903809,-103.82415778621940206,361.53391120222158861,31.51357956441647801,0.68951228411478516,-0.00235674968078232,0.00298614166840190,0.72426399796185514,0.01111111111111111,0.01444444444444444,0.13222222222222221,-1.46999999999999997,2.00000000000000000,9.15000000000000036,90.00000000000000000,90.00000000000000000,11.61300793600000070
2.82017350196838379,-104.02803524828675563,367.32219347657661501,31.48201961455956166,0.68910228820753783,-0.00267180375112094,0.00321992983358396,0.72465200607168556,0.01111111111111111,0.01444444444444444,0.13222222222222221,-1.46999999999999997,2.00000000000000000,9.15000000000000036,90.00000000000000000,90.00000000000000000,11.61300793600000070
2.83013486862182617,-104.19063364767345092,373.87056010773795833,31.48933183307071104,0.68877806892273574,-0.00254234246205221,0.00333119430909073,0.72496014470476089,0.01111111111111111,0.01444444444444444,0.13222222222222221,-1.46999999999999997,2.00000000000000000,9.15000000000000036,90.00000000000000000,90.00000000000000000,11.61300793600000070
2.84007430076599121,-104.62307879191526183,380.42509621318021118,31.29935115696055803,0.68804786962391473,-0.00276680632393362,0.00362994884268214,0.72565094732947044,0.01111111111111111,0.01444444444444444,0.13222222222222221,-1.46999999999999997,2.00000000000000000,9.15000000000000036,90.00000000000000000,90.00000000000000000,11.61300793600000070
2.85008883476257324,-104.69998388769431585,386.49403697789216494,31.46459762347739186,0.68805513936254370,-0.00249833719677320,0.00317434131939118,0.72564716430592480,0.19222222222222221,0.09111111111111111,0.13555555555555557,-2.41000000000000014,1.69999999999999996,9.31000000000000050,90.00000000000000000,90.00000000000000000,11.63276915199999983
2.86008095741271973,-105.44774972580961503,392.94454508130507975,31.24942722567423559,0.68723921072361682,-0.00258557910086707,0.00387057564726405,0.72641627230455996,0.19222222222222221,0.09111111111111111,0.13555555555555557,-2.41000000000000014,1.69999999999999996,9.31000000000000050,90.00000000000000000,90.00000000000000000,11.63276915199999983
2.87012028694152832,-105.72135675947959044,399.63417334580481111,31.29435843079850699,0.68691887400837781,-0.00268758861546320,0.00369192114665034,0.72671975830903590,0.19222222222222221,0.09111111111111111,0.13555555555555557,-2.41000000000000014,1.69999999999999996,9.31000000000000050,90.00000000000000000,90.00000000000000000,11.63276915199999983
2.88012480735778809,-105.87044756925729416,405.59252057824437543,31.43105831862585831,0.68671089840549282,-0.00322767217550453,0.00253388355698026,0.72691904884764691,0.19222222222222221,0.09111111111111111,0.13555555555555557,-2.41000000000000014,1.69999999999999996,9.31000000000000050,90.00000000000000000,90.00000000000000000,11.63276915199999983
2.89014172554016113,-106.38487540040898693,412.02692571542200994,31.34709148099420872,0.68598340223935239,-0.00304536979935679,0.00311864113755025,0.72760413114025368,-0.04111111111111111,0.27333333333333332,0.13111111111111112,-0.31000000000000000,3.93000000000000016,10.27999999999999936,90.00000000000000000,90.00000000000000000,11.60312732800000113
2.90007710456848145,-106.57227932609957577,418.05076781548103781,31.36198040176864410,0.68583492239154875,-0.00280148110236155,0.00278172583544963,0.72774643450393339,-0.04111111111111111,0.27333333333333332,0.13111111111111112,-0.31000000000000000,3.93000000000000016,10.27999999999999936,90.00000000000000000,90.00000000000000000,11.60312732800000113
2.91002202033996582,-107.06612637525635989,424.74665995871032464,31.30373784969296480,0.68528845367892954,-0.00204189717805868,0.00274742977248925,0.72826370055076939,-0.04111111111111111,0.27333333333333332,0.13111111111111112,-0.31000000000000000,3.93000000000000016,10.27999999999999936,90.00000000000000000,90.00000000000000000,11.60312732800000113
2.92007756233215332,-107.76870456342199134,430.74960212688097272,31.14848066171514063,0.68466409335669076,-0.00119430334900753,0.00365377046361723,0.72884861450713478,-0.04111111111111111,0.27333333333333332,0.13111111111111112,-0.31000000000000000,3.93000000000000016,10.27999999999999936,90.00000000000000000,90.00000000000000000,11.60312732800000113
2.93007636070251465,-107.86481472038946094,437.34420495754267222,31.21260490714002955,0.68448685994353087,-0.00156510689211200,0.00287635306320384,0.72901784312739348,-0.04111111111111111,0.27333333333333332,0.13111111111111112,-0.31000000000000000,3.93000000000000016,10.27999999999999936,90.00000000000000000,90.00000000000000000,11.60312732800000113
2.94022727012634277,-108.51861376627083189,443.87676160498159561,30.98346447784877000,0.68377990771229658,-0.00171055944795705,0.00357666936514015,0.72967754469463497,-0.01444444444444444,-0.03777777777777778,0.11555555555555555,0.56000000000000005,1.47999999999999998,6.95000000000000018,90.00000000000000000,90.00000000000000000,11.61959500800000100
2.95013070106506348,-109.11606265714344488,449.81499970803815813,31.01923200234541866,0.68330630086463684,-0.00119718753977265,0.00411077574163202,0.73011928303769857,-0.01444444444444444,-0.03777777777777778,0.11555555555555555,0.56000000000000005,1.47999999999999998,6.95000000000000018,90.00000000000000000,90.00000000000000000,11.61959500800000100
2.96012496948242188,-109.23439681442283700,456.50400131264427728,31.36862177893779702,0.68304331256737261,-0.00084138343415870,0.00334749031572088,0.73036971428139996,-0.01444444444444444,-0.03777777777777778,0.11555555555555555,0.56000000000000005,1.47999999999999998,6.95000000000000018,90.00000000000000000,90.00000000000000000,11.61959500800000100
2.97015261650085449,-109.86216563589194095,462.97899630243546198,31.22579020883109990,0.68244027245656991,-0.00056454516176610,0.00384932929867780,0.73093100801793409,-0.01444444444444444,-0.03777777777777778,0.11555555555555555,0.56000000000000005,1.47999999999999998,6.95000000000000018,90.00000000000000000,90.00000000000000000,11.61959500800000100
2.98007535934448242,-110.03063989576371284,468.82598732830092558,31.08758690105994660,0.68219755126736803,-0.00088808958493141,0.00329101598480820,0.73115995620348595,-0.01444444444444444,-0.03777777777777778,0.11555555555555555,0.56000000000000005,1.47999999999999998,6.95000000000000018,90.00000000000000000,90.00000000000000000,11.61959500800000100
2.99008154869079590,-110.22517146967156521,475.30194271386585569,31.01555571772061271,0.68193268627239745,-0.00190427899381152,0.00282066500914144,0.73140702003995861,-0.01444444444444444,-0.03777777777777778,0.11555555555555555,0.56000000000000005,1.47999999999999998,6.95000000000000018,90.00000000000000000,90.00000000000000000,11.61959500800000100
3.00002193450927734,-110.62722790152906782,481.31416751850338187,31.11989202781475328,0.68158378206943016,-0.00189292475074962,0.00240218577644798,0.73173369087347273,-0.01444444444444444,-0.03777777777777778,0.11555555555555555,0.56000000000000005,1.47999999999999998,6.95000000000000018,90.00000000000000000,90.00000000000000000,11.61959500800000100
3.01002502441406250,-111.41335338838497648,487.86010894881701461,31.07421810880186896,0.68119120678199563,-0.00164635368615399,0.00284147883809867,0.73209818693973150,0.02888888888888889,-0.03555555555555556,0.13444444444444445,-0.56999999999999995,3.43999999999999995,7.00999999999999979,90.00000000000000000,90.00000000000000000,11.60312732800000113
3.02005243301391602,-112.16403052310018040,493.64570845645158670,30.78293408478223014,0.68033595614619513,-0.00202115446017820,0.00319668730194627,0.73289063501970286,0.02888888888888889,-0.03555555555555556,0.13444444444444445,-0.56999999999999995,3.43999999999999995,7.00999999999999979,90.00000000000000000,90.00000000000000000,11.60312732800000113
3.03008389472961426,-112.49689528181745857,500.36533981166985541,30.75059173216623165,0.68023397596217228,-0.00164372455791669,0.00338034328726042,0.73298540871939111,0.02888888888888889,-0.03555555555555556,0.13444444444444445,-0.56999999999999995,3.43999999999999995,7.00999999999999979,90.00000000000000000,90.00000000000000000,11.60312732800000113
3.04002380371093750,-113.19830788749810324,506.92194794462915297,30.64367109674603284,0.67976826895909970,-0.00152537111501540,0.00354260587603738,0.73341681443972762,0.02888888888888889,-0.03555555555555556,0.13444444444444445,-0.56999999999999995,3.43999999999999995,7.00999999999999979,90.00000000000000000,90.00000000000000000,11.60312732800000113
3.05002355575561523,-113.08669728766226115,512.93246107337176909,30.76741371367576150,0.67967875307530112,-0.00194067353031798,0.00254424473405704,0.73350293334313676,0.08222222222222222,-0.05333333333333334,0.12555555555555556,-1.68999999999999995,1.47999999999999998,8.23000000000000043,90.00000000000000000,90.00000000000000000,11.64594329600000044
3.06002521514892578,-113.45931601801733279,519.21891244317464498,30.71505796366257712,0.67931725259002862,-0.00260662279027094,0.00261870257449553,0.73383541632166460,0.08222222222222222,-0.05333333333333334,0.12555555555555556,-1.68999999999999995,1.47999999999999998,8.23000000000000043,90.00000000000000000,90.00000000000000000,11.64594329600000044
3.07001733779907227,-114.68154237970547626,525.30329804360337675,30.44163924645607366,0.67846040989392709,-0.00143206681835433,0.00351067943963340,0.73462718199169874,0.08222222222222222,-0.05333333333333334,0.12555555555555556,-1.68999999999999995,1.47999999999999998,8.23000000000000043,90.00000000000000000,90.00000000000000000,11.64594329600000044
3.08004069328308105,-114.97481795935640037,531.97656924312047977,30.87590461241135031,0.67843567505233959,-0.00124257568207779,0.00310480946915164,0.73465219728801667,0.08222222222222222,-0.05333333333333334,0.12555555555555556,-1.68999999999999995,1.47999999999999998,8.23000000000000043,90.00000000000000000,90.00000000000000000,11.64594329600000044
3.08998894691467285,-116.14903274236927189,538.51197819343133233,30.73138218768049867,0.67749353725462613,-0.00063663097815179,0.00381721145644627,0.73551854536504313,0.08222222222222222,-0.05333333333333334,0.12555555555555556,-1.68999999999999995,1.47999999999999998,8.23000000000000043,90.00000000000000000,90.00000000000000000,11.64594329600000044
3.10000896453857422,-116.26864006624312253,544.74063687690409097,31.04225116090415781,0.67736668180710846,-0.00078537607563216,0.00250019273068865,0.73564088426239416,-0.04000000000000000,-0.02222222222222222,0.11777777777777777,2.27999999999999980,2.52999999999999980,11.16000000000000014,90.00000000000000000,90.00000000000000000,11.62288854400000027
3.11003541946411133,-117.02285182870430447,551.12137799021206774,30.91374488959171529,0.67653331321204679,-0.00135497199735956,0.00260580547686348,0.73640617185289414,-0.04000000000000000,-0.02222222222222222,0.11777777777777777,2.27999999999999980,2.52999999999999980,11.16000000000000014,90.00000000000000000,90.00000000000000000,11.62288854400000027
3.11998891830444336,-117.50507043285286102,556.93623157570482363,30.76505447954096084,0.67594944146239655,-0.00158378713842079,0.00266588849106580,0.73694147477498329,-0.04000000000000000,-0.02222222222222222,0.11777777777777777,2.27999999999999980,2.52999999999999980,11.16000000000000014,90.00000000000000000,90.00000000000000000,11.62288854400000027
3.13005518913269043,-117.88648605680396031,563.53252829827442838,30.82704776115168599,0.67567768712130238,-0.00206119963417571,0.00177427513537358,0.73719215034495533,-0.04000000000000000,-0.02222222222222222,0.11777777777777777,2.27999999999999980,2.52999999999999980,11.16000000000000014,90.00000000000000000,90.00000000000000000,11.62288854400000027
3.14001154899597168,-118.51254857093654493,570.01689422967365317,30.78719812171726744,0.67520873893564881,-0.00195817152037065,0.00186320519305991,0.73762175462471025,-0.04000000000000000,-0.02222222222222222,0.11777777777777777,2.27999999999999980,2.52999999999999980,11.16000000000000014,90.00000000000000000,90.00000000000000000,11.62288854400000027
3.15001106262207031,-119.29967768653425253,575.91424603359030243,30.90924868269445724,0.67464765552929662,-0.00128806421168022,0.00220322945895770,0.73813550758608104,-0.04000000000000000,-0.02222222222222222,0.11777777777777777,2.27999999999999980,2.52999999999999980,11.16000000000000014,90.00000000000000000,90.00000000000000000,11.62288854400000027
3.16000819206237793,-119.78815503639411588,582.44311544892195798,30.81286837174281246,0.67435370179218201,-0.00161531563300205,0.00191758861006398,0.73840422431653907,-0.02444444444444445,-0.03555555555555556,0.13555555555555557,-0.03000000000000000,1.31000000000000005,9.66000000000000014,70.90000000000000568,70.90000000000000568,11.59654025600000082
3.17006111145019531,-120.08779280345270024,588.45216789086532572,30.97116494677608500,0.67423415325541725,-0.00172028234999567,0.00132571953719065,0.73851444784803999,-0.02444444444444445,-0.03555555555555556,0.13555555555555557,-0.03000000000000000,1.31000000000000005,9.66000000000000014,70.90000000000000568,70.90000000000000568,11.59654025600000082
3.18008542060852051,-121.06322926933800943,594.94131425969828797,30.91591047312959617,0.67347176383959306,-0.00145673794553077,0.00148618930339792,0.73921001918717255,-0.02444444444444445,-0.03555555555555556,0.13555555555555557,-0.03000000000000000,1.31000000000000005,9.66000000000000014,70.90000000000000568,70.90000000000000568,11.59654025600000082
3.19003319740295410,-121.89584519385948624,601.41087406128144721,30.82264067060577517,0.67319337528919521,-0.00105313494826677,0.00204845072305881,0.73946289577175961,-0.02444444444444445,-0.03555555555555556,0.13555555555555557,-0.03000000000000000,1.31000000000000005,9.66000000000000014,70.90000000000000568,70.90000000000000568,11.59654025600000082
3.20003461837768555,-122.44193825743927562,607.00225440954579881,30.70646314470110383,0.67281011942116209,-0.00124657134771949,0.00223407686763971,0.73981078538022549,0.03888888888888889,-0.03000000000000000,0.11000000000000000,3.41999999999999993,2.39999999999999991,12.68999999999999950,52.89999999999999858,52.89999999999999858,11.66241097600000032
3.21002578735351562,-123.21731483993930567,612.72727764251044391,30.55829319713878078,0.67244292897960378,-0.00176403839228260,0.00276862184439284,0.74014169600622071,0.03888888888888889,-0.03000000000000000,0.11000000000000000,3.41999999999999993,2.39999999999999991,12.68999999999999950,52.89999999999999858,52.89999999999999858,11.66241097600000032
3.22005724906921387,-123.40603767839222371,617.63952632850237023,30.54349743711562937,0.67273893248382999,-0.00235292985402180,0.00340772864798687,0.73986835303794429,0.03888888888888889,-0.03000000000000000,0.11000000000000000,3.41999999999999993,2.39999999999999991,12.68999999999999950,52.89999999999999858,52.89999999999999858,11.66241097600000032
3.23007893562316895,-123.58692951449545205,622.58830750591255310,30.35820905978912165,0.67293235273197505,-0.00355556569655609,0.00382583699650858,0.73968558832145836,0.03888888888888889,-0.03000000000000000,0.11000000000000000,3.41999999999999993,2.39999999999999991,12.68999999999999950,52.89999999999999858,52.89999999999999858,11.66241097600000032
3.24017214775085449,-123.88700063727439726,627.37115098524782297,30.63280377016051759,0.67319476579081217,-0.00414055536124702,0.00403749992904786,0.73944260203715395,0.03888888888888889,-0.03000000000000000,0.11000000000000000,3.41999999999999993,2.39999999999999991,12.68999999999999950,52.89999999999999858,52.89999999999999858,11.66241097600000032
3.25012707710266113,-123.82180723197774341,631.55796458497400181,30.58445851416392358,0.67347113911143397,-0.00443434927647931,0.00386612421804356,0.73919010708610811,0.03888888888888889,-0.03000000000000000,0.11000000000000000,3.41999999999999993,2.39999999999999991,12.68999999999999950,52.89999999999999858,52.89999999999999858,11.66241097600000032
3.26011729240417480,-124.58276234163285778,635.83969747933508643,30.48830704102452316,0.67313630690576964,-0.00438013108725871,0.00459131953147566,0.73949120790032374,-0.08777777777777777,0.17000000000000001,0.04555555555555556,-5.25000000000000000,2.10999999999999988,9.96000000000000085,6.50000000000000000,6.50000000000000000,11.67229158399999989
3.27007675170898438,-124.98685296518203813,639.23839623377796215,30.50690308412862706,0.67294816824968884,-0.00462480633275858,0.00514959674608916,0.73965725553740480,-0.08777777777777777,0.17000000000000001,0.04555555555555556,-5.25000000000000000,2.10999999999999988,9.96000000000000085,6.50000000000000000,6.50000000000000000,11.67229158399999989
3.28013730049133301,-125.03082597319910008,642.54211634912292084,30.53569255320193676,0.67317405232426419,-0.00584504447437274,0.00568387996310543,0.73943912815118618,-0.08777777777777777,0.17000000000000001,0.04555555555555556,-5.25000000000000000,2.10999999999999988,9.96000000000000085,6.50000000000000000,6.50000000000000000,11.67229158399999989
3.29012489318847656,-125.15928928257841335,645.28977436967409176,30.50369714139125676,0.67327846166031236,-0.00715280099388579,0.00690549842706807,0.73932216563128894,-0.08777777777777777,0.17000000000000001,0.04555555555555556,-5.25000000000000000,2.10999999999999988,9.96000000000000085,6.50000000000000000,6.50000000000000000,11.67229158399999989
3.30012035369873047,-125.55458991622576548,647.56089927575885667,30.50263166355160038,0.67297466748036860,-0.00804261763474790,0.00792685203479058,0.73957932518972358,-0.00666666666666667,0.06000000000000000,-0.02777777777777778,-5.46999999999999975,2.02999999999999980,9.51999999999999957,-0.00000000000000000,0.00000000000000000,11.67887865600000019
3.31011271476745605,-125.79629904176738364,649.61025881279408623,30.47196843009217559,0.67330897523162847,-0.00942109751967462,0.00934291084370776,0.73924216384823871,-0.00666666666666667,0.06000000000000000,-0.02777777777777778,-5.46999999999999975,2.02999999999999980,9.51999999999999957,-0.00000000000000000,0.00000000000000000,11.67887865600000019
3.32011938095092773,-125.89718439113103443,651.20988435562514951,30.31863311329238186,0.67352295302693010,-0.01059711009674842,0.01057991212547584,0.73901461315923822,-0.00666666666666667,0.06000000000000000,-0.02777777777777778,-5.46999999999999975,2.02999999999999980,9.51999999999999957,-0.00000000000000000,0.00000000000000000,11.67887865600000019
3.33013343811035156,-125.84571614499280656,652.71934222590903119,30.44500107205933759,0.67378455805344795,-0.01198486938754857,0.01120152905059664,0.73874573297002011,-0.00666666666666667,0.06000000000000000,-0.02777777777777778,-5.46999999999999975,2.02999999999999980,9.51999999999999957,-0.00000000000000000,0.00000000000000000,11.67887865600000019
3.34024930000305176,-125.90236499209903798,653.99623029414817665,30.50900256084793583,0.67393053857587393,-0.01291533694010895,0.01183297868121925,0.73858703201592013,-0.00666666666666667,0.06000000000000000,-0.02777777777777778,-5.46999999999999975,2.02999999999999980,9.51999999999999957,-0.00000000000000000,0.00000000000000000,11.67887865600000019
3.35012006759643555,-126.06951807809913646,654.75737207183158262,30.60742856493166641,0.67392555119102848,-0.01333832698056852,0.01231576912728612,0.73857617231808348,0.00666666666666667,0.37333333333333335,-0.05000000000000000,-3.39000000000000012,2.06999999999999984,9.75999999999999979,-0.00000000000000000,0.00000000000000000,11.65911744000000105
3.36012244224548340,-126.27562678897896831,655.38732126308775605,30.59184679000587792,0.67382783805023072,-0.01367362388428408,0.01291881879078381,0.73864888871470857,0.00666666666666667,0.37333333333333335,-0.05000000000000000,-3.39000000000000012,2.06999999999999984,9.75999999999999979,-0.00000000000000000,0.00000000000000000,11.65911744000000105
3.37011837959289551,-126.30192277943042711,655.69987473344997397,30.52276438115969270,0.67394897335012927,-0.01377023005714009,0.01307708347634241,0.73853378526119773,0.00666666666666667,0.37333333333333335,-0.05000000000000000,-3.39000000000000012,2.06999999999999984,9.75999999999999979,-0.00000000000000000,0.00000000000000000,11.65911744000000105
3.38019537925720215,-126.33253307333298210,655.96156084453843960,30.52099234440522579,0.67407293758524722,-0.01350364047454414,0.01282626326990587,0.73842996518265780,0.00666666666666667,0.37333333333333335,-0.05000000000000000,-3.39000000000000012,2.06999999999999984,9.75999999999999979,-0.00000000000000000,0.00000000000000000,11.65911744000000105
3.39012932777404785,-126.33369451688730578,656.00278696048553684,30.54843047910940257,0.67410298663449475,-0.01280868392095627,0.01229649547577633,0.73842392785288424,0.00666666666666667,0.37333333333333335,-0.05000000000000000,-3.39000000000000012,2.06999999999999984,9.75999999999999979,-0.00000000000000000,0.00000000000000000,11.65911744000000105
3.40012764930725098,-126.27654389480396446,655.97531727807097468,30.62422239472758179,0.67419691840070350,-0.01166779717520693,0.01119495906809781,0.73837460047020642,-0.00888888888888889,0.10888888888888888,-0.01000000000000000,-3.95999999999999996,1.68999999999999995,9.82000000000000028,-0.00000000000000000,0.00000000000000000,11.65911744000000105
3.41017270088195801,-126.35306538546456068,655.96328577008443972,30.61395253200090849,0.67426672728272474,-0.00971826612686691,0.00949440316155283,0.73836291354017591,-0.00888888888888889,0.10888888888888888,-0.01000000000000000,-3.95999999999999996,1.68999999999999995,9.82000000000000028,-0.00000000000000000,0.00000000000000000,11.65911744000000105
