t,x,y,z,q0,q1,q2,q3,wx,wy,wz,ax,ay,az,dutyR,dutyL,Vbatt
0.00000000000000000,-15.80495875434837671,20.44115124532354244,31.80199054708650053,0.10438609749014452,-0.64908081232952131,0.60209034785033722,0.45308371714496731,0.00000000000000000,0.00000000000000000,0.00000000000000000,0.00000000000000000,0.00000000000000000,0.00000000000000000,0.00000000000000000,0.00000000000000000,0.00000000000000000
0.01005434989929199,-15.80495875434837671,20.44115124532354244,31.80199054708650053,0.59812988321440996,-0.00191169849065195,0.00257606714204268,0.80139275769929252,0.00000000000000000,0.00000000000000000,0.00000000000000000,0.00000000000000000,0.00000000000000000,0.00000000000000000,0.00000000000000000,0.00000000000000000,0.00000000000000000
0.02003860473632812,-15.82797711525906870,20.41866385518868654,31.79771577315868214,0.59809055575282688,-0.00189077028066337,0.00260711100696681,0.80142205801888045,0.00000000000000000,0.00000000000000000,0.00000000000000000,0.00000000000000000,0.00000000000000000,0.00000000000000000,0.00000000000000000,0.00000000000000000,0.00000000000000000
0.03011894226074219,-15.78585487294828660,20.43434368584247451,31.78858931550652756,0.59815181337044765,-0.00192785681289603,0.00262990764087119,0.80137617578485221,0.00000000000000000,0.00000000000000000,0.00000000000000000,0.00000000000000000,0.00000000000000000,0.00000000000000000,0.00000000000000000,0.00000000000000000,0.00000000000000000
0.04003810882568359,-15.80387954181997223,20.39672379658759027,31.74184971622465312,0.59815282737340714,-0.00190234597872750,0.00281582268553098,0.80137484820000426,0.00000000000000000,0.00000000000000000,0.00000000000000000,0.00000000000000000,0.00000000000000000,0.00000000000000000,0.00000000000000000,0.00000000000000000,0.00000000000000000
0.05009484291076660,-15.81174511188145893,20.40937704370932337,31.73322515403998167,0.59816538060937496,-0.00182973731567147,0.00282523871326555,0.80136561414126695,0.00000000000000000,0.00000000000000000,0.00000000000000000,0.00000000000000000,0.00000000000000000,0.00000000000000000,0.00000000000000000,0.00000000000000000,0.00000000000000000
0.06011223793029785,-15.82436484808125954,20.41658678102548308,31.78549708455896905,0.59811262994316372,-0.00186847074683884,0.00274602634389904,0.80140517221868424,0.00000000000000000,0.00000000000000000,0.00000000000000000,0.00000000000000000,0.00000000000000000,0.00000000000000000,0.00000000000000000,0.00000000000000000,0.00000000000000000
0.07011675834655762,-15.82838708544194084,20.42974669638706686,31.76779302767238633,0.59811045664097939,-0.00189840552693179,0.00264065448636172,0.80140707799286248,-0.00111111111111111,-0.00111111111111111,-0.00111111111111111,-0.16000000000000000,1.83000000000000007,9.67999999999999972,0.00000000000000000,0.00000000000000000,11.74145584000000042
0.08015775680541992,-15.79181971512312010,20.42319155194582692,31.75436773684321068,0.59814167546328545,-0.00189231934905225,0.00270325992929541,0.80138358330278370,-0.00111111111111111,-0.00111111111111111,-0.00111111111111111,-0.16000000000000000,1.83000000000000007,9.67999999999999972,0.00000000000000000,0.00000000000000000,11.74145584000000042
0.09004187583923340,-15.81409176619570189,20.42177276188596124,31.78287927331661322,0.59809028340996306,-0.00185396639646201,0.00268927266876460,0.80142207575765223,-0.00111111111111111,-0.00111111111111111,-0.00111111111111111,-0.16000000000000000,1.83000000000000007,9.67999999999999972,0.00000000000000000,0.00000000000000000,11.74145584000000042
0.10003566741943359,-15.80496867934417971,20.40147947647598059,31.75934298668844136,0.59820643819016450,-0.00180822601793445,0.00285231665907394,0.80133491869266593,0.00222222222222222,-0.00222222222222222,-0.00000000000000000,-0.16000000000000000,1.82000000000000006,9.61999999999999922,0.00000000000000000,0.00000000000000000,11.74804291200000073
0.11003446578979492,-15.83404969588296218,20.42355356874285732,31.78327420663210034,0.59810183451653953,-0.00185510232588277,0.00269523616049992,0.80141343253363895,0.00222222222222222,-0.00222222222222222,-0.00000000000000000,-0.16000000000000000,1.82000000000000006,9.61999999999999922,0.00000000000000000,0.00000000000000000,11.74804291200000073
0.12003803253173828,-15.82215276175477925,20.44183323995625656,31.77114328285183831,0.59813263946443640,-0.00184890002446210,0.00272362267860709,0.80139035997166252,0.00222222222222222,-0.00222222222222222,-0.00000000000000000,-0.16000000000000000,1.82000000000000006,9.61999999999999922,0.00000000000000000,0.00000000000000000,11.74804291200000073
0.13011026382446289,-15.80645789251048861,20.43393222885192628,31.77713328057602737,0.59810159159946497,-0.00192239452999061,0.00263463172499950,0.80141365675981080,0.00222222222222222,-0.00222222222222222,-0.00000000000000000,-0.16000000000000000,1.82000000000000006,9.61999999999999922,0.00000000000000000,0.00000000000000000,11.74804291200000073
0.14003133773803711,-15.81587817926570949,20.40217214153399183,31.74335505779903244,0.59811382814787140,-0.00191696449449424,0.00273770106647851,0.80140419191460166,0.00222222222222222,-0.00222222222222222,-0.00000000000000000,-0.16000000000000000,1.82000000000000006,9.61999999999999922,0.00000000000000000,0.00000000000000000,11.74804291200000073
0.15003299713134766,-15.86067962972201961,20.40322292282810324,31.75922852314201350,0.59814092398723839,-0.00182809484396425,0.00285522889737872,0.80138376623742369,-0.00333333333333333,0.00333333333333333,-0.00111111111111111,-0.16000000000000000,1.83000000000000007,9.63000000000000078,0.00000000000000000,0.00000000000000000,11.74804291200000073
0.16003799438476562,-15.80875847968851566,20.43498218942253786,31.78353741225485507,0.59812768422196128,-0.00188789533048078,0.00262145331552735,0.80139430819104884,-0.00333333333333333,0.00333333333333333,-0.00111111111111111,-0.16000000000000000,1.83000000000000007,9.63000000000000078,0.00000000000000000,0.00000000000000000,11.74804291200000073
0.17003393173217773,-15.85004265843844529,20.42627148294619488,31.78812867808933262,0.59807303762635400,-0.00178802179398467,0.00273130926788720,0.80143495343797766,-0.00333333333333333,0.00333333333333333,-0.00111111111111111,-0.16000000000000000,1.83000000000000007,9.63000000000000078,0.00000000000000000,0.00000000000000000,11.74804291200000073
0.18011641502380371,-15.72938151768335935,20.45395616686045415,31.80992113736278171,0.59816176450645675,-0.00190335030307653,0.00252395494187822,0.80136914739188547,-0.00333333333333333,0.00333333333333333,-0.00111111111111111,-0.16000000000000000,1.83000000000000007,9.63000000000000078,0.00000000000000000,0.00000000000000000,11.74804291200000073
0.19003367424011230,-15.79270654183088141,20.41416713521946136,31.80535754110984570,0.59809173232401136,-0.00190934735095788,0.00260304281014194,0.80142114913850726,-0.00333333333333333,0.00333333333333333,-0.00111111111111111,-0.16000000000000000,1.83000000000000007,9.63000000000000078,0.00000000000000000,0.00000000000000000,11.74804291200000073
0.20003747940063477,-15.81104547532578941,20.41418888581806002,31.77946317926037523,0.59816802022581095,-0.00190169160596207,0.00271314640716249,0.80136386366290713,-0.00333333333333333,0.00333333333333333,-0.00111111111111111,-0.16000000000000000,1.83000000000000007,9.63000000000000078,0.00000000000000000,0.00000000000000000,11.74804291200000073
0.21003580093383789,-15.77720911120091785,20.46507369942658983,31.82493071708171684,0.59817972591777502,-0.00187877221964398,0.00252471467202312,0.80135579584333627,-0.00111111111111111,0.00111111111111111,-0.00111111111111111,-0.14000000000000001,1.83000000000000007,9.59999999999999964,0.00000000000000000,0.00000000000000000,11.72498816000000055
0.22003412246704102,-15.80035676295591429,20.46142943452415253,31.78461916292537737,0.59818811537426242,-0.00188947049693672,0.00262960487934505,0.80134917090142921,-0.00111111111111111,0.00111111111111111,-0.00111111111111111,-0.14000000000000001,1.83000000000000007,9.59999999999999964,0.00000000000000000,0.00000000000000000,11.72498816000000055
0.23010897636413574,-15.72712129739764464,20.45716629637313844,31.82120588298097275,0.59818317506711682,-0.00194043092877989,0.00249448067962999,0.80135316893400554,-0.00111111111111111,0.00111111111111111,-0.00111111111111111,-0.14000000000000001,1.83000000000000007,9.59999999999999964,0.00000000000000000,0.00000000000000000,11.72498816000000055
0.24003243446350098,-15.73527527084164035,20.47116149848862321,31.83055411157250703,0.59818891639143212,-0.00193425542236919,0.00247209487229560,0.80134896749752393,-0.00111111111111111,0.00111111111111111,-0.00111111111111111,-0.14000000000000001,1.83000000000000007,9.59999999999999964,0.00000000000000000,0.00000000000000000,11.72498816000000055
0.25003337860107422,-15.73905393036202405,20.44143625805985565,31.79872656486959670,0.59823738259780745,-0.00196162470907607,0.00258082131130089,0.80131237694945412,-0.28333333333333333,0.00222222222222222,-0.00111111111111111,-0.16000000000000000,1.82000000000000006,9.60999999999999943,0.00000000000000000,0.00000000000000000,11.75462998400000103
0.26003241539001465,-15.71863353022718890,20.51343619115836603,31.77685260078624552,0.59823156156745183,-0.00192603780486153,0.00250705696145149,0.80131704324089736,-0.28333333333333333,0.00222222222222222,-0.00111111111111111,-0.16000000000000000,1.82000000000000006,9.60999999999999943,0.00000000000000000,0.00000000000000000,11.75462998400000103
0.27003407478332520,-15.75422206845659012,20.44451813399007634,31.77942530599817417,0.59817783390740020,-0.00195467034741946,0.00256080584474246,0.80135691209292570,-0.28333333333333333,0.00222222222222222,-0.00111111111111111,-0.16000000000000000,1.82000000000000006,9.60999999999999943,0.00000000000000000,0.00000000000000000,11.75462998400000103
0.28011274337768555,-15.76730445695889138,20.45089626994712617,31.80488202383125440,0.59814913520044366,-0.00190834876570373,0.00256215605182993,0.80137844095053901,-0.28333333333333333,0.00222222222222222,-0.00111111111111111,-0.16000000000000000,1.82000000000000006,9.60999999999999943,0.00000000000000000,0.00000000000000000,11.75462998400000103
0.29003667831420898,-15.76056644409374918,20.46151937379834962,31.81428082491216358,0.59816097546993141,-0.00187707546099496,0.00255591025023722,0.80136969704086414,-0.28333333333333333,0.00222222222222222,-0.00111111111111111,-0.16000000000000000,1.82000000000000006,9.60999999999999943,0.00000000000000000,0.00000000000000000,11.75462998400000103
0.30003499984741211,-15.76152365999733718,20.43848525652320447,31.78459029768178468,0.59820775310175467,-0.00198748485720059,0.00257734918581919,0.80133444410187893,-0.28333333333333333,0.00222222222222222,-0.00111111111111111,-0.16000000000000000,1.82000000000000006,9.60999999999999943,0.00000000000000000,0.00000000000000000,11.75462998400000103
0.31003618240356445,-15.76788559259936484,20.45578999768127204,31.78602891013761678,0.59819459648917039,-0.00199392692244202,0.00251784801108803,0.80134443869535876,0.00333333333333333,0.00111111111111111,0.00111111111111111,-0.17000000000000001,1.83000000000000007,9.61999999999999922,0.00000000000000000,0.00000000000000000,11.73157523200000085
0.32003760337829590,-15.83260847220949152,20.44297554729491750,31.83255573349111955,0.59812484891591344,-0.00183336354607958,0.00263249800515244,0.80139651474265627,0.00333333333333333,0.00111111111111111,0.00111111111111111,-0.17000000000000001,1.83000000000000007,9.61999999999999922,0.00000000000000000,0.00000000000000000,11.73157523200000085
0.33010315895080566,-15.76884900708611248,20.44257196110273256,31.83002392127810154,0.59814699559969764,-0.00189718711125145,0.00253938584465571,0.80138013692357757,0.00333333333333333,0.00111111111111111,0.00111111111111111,-0.17000000000000001,1.83000000000000007,9.61999999999999922,0.00000000000000000,0.00000000000000000,11.73157523200000085
0.34012699127197266,-15.81632912025706084,20.43428332997252994,31.82114594915786654,0.59809124369769240,-0.00188731743185790,0.00255775081610200,0.80142171180709965,0.00333333333333333,0.00111111111111111,0.00111111111111111,-0.17000000000000001,1.83000000000000007,9.61999999999999922,0.00000000000000000,0.00000000000000000,11.73157523200000085
0.35009741783142090,-15.75250556446866312,20.44837339453039249,31.79730981722894612,0.59824240367029557,-0.00192769225940770,0.00257288243923866,0.80130873621176324,0.00000000000000000,-0.00111111111111111,-0.00222222222222222,-0.16000000000000000,1.83000000000000007,9.61999999999999922,0.00000000000000000,0.00000000000000000,11.74474937599999969
0.36010527610778809,-15.76957966266579980,20.47723262967728175,31.80849543601010865,0.59820951220850460,-0.00187646780934289,0.00254392863939097,0.80133350535148695,0.00000000000000000,-0.00111111111111111,-0.00222222222222222,-0.16000000000000000,1.83000000000000007,9.61999999999999922,0.00000000000000000,0.00000000000000000,11.74474937599999969
0.37009954452514648,-15.78149823164872601,20.44468190799376828,31.79382703449573100,0.59819053971379121,-0.00190627677573628,0.00262050825953124,0.80134735117939881,0.00000000000000000,-0.00111111111111111,-0.00222222222222222,-0.16000000000000000,1.83000000000000007,9.61999999999999922,0.00000000000000000,0.00000000000000000,11.74474937599999969
0.38015770912170410,-15.75996418584823822,20.45196829483588274,31.79719584188013926,0.59824723122854961,-0.00189331037901965,0.00259412970478309,0.80130514549343634,0.00000000000000000,-0.00111111111111111,-0.00222222222222222,-0.16000000000000000,1.83000000000000007,9.61999999999999922,0.00000000000000000,0.00000000000000000,11.74474937599999969
0.39003634452819824,-15.73130427928537323,20.43881881858263938,31.80573077764024958,0.59823812526588682,-0.00190292492576543,0.00258690890237829,0.80131194441204701,0.00000000000000000,-0.00111111111111111,-0.00222222222222222,-0.16000000000000000,1.83000000000000007,9.61999999999999922,0.00000000000000000,0.00000000000000000,11.74474937599999969
0.40003514289855957,-15.80193831836534457,20.44795794454598692,31.79506087428028493,0.59822897764820537,-0.00179309279340357,0.00273425690400247,0.80131853776098338,0.00000000000000000,0.00111111111111111,-0.00111111111111111,-0.16000000000000000,1.83000000000000007,9.61999999999999922,0.00000000000000000,0.00000000000000000,11.73157523200000085
0.41003394126892090,-15.78321052413249959,20.45617400553645737,31.79298346396288366,0.59818741707562928,-0.00190777200137546,0.00258214384500298,0.80134980313939130,0.00000000000000000,0.00111111111111111,-0.00111111111111111,-0.16000000000000000,1.83000000000000007,9.61999999999999922,0.00000000000000000,0.00000000000000000,11.73157523200000085
0.42005228996276855,-15.78711054976278660,20.44992376454213812,31.78882384149543938,0.59817775103093573,-0.00185503838048743,0.00265956734685167,0.80135688909855041,0.00000000000000000,0.00111111111111111,-0.00111111111111111,-0.16000000000000000,1.83000000000000007,9.61999999999999922,0.00000000000000000,0.00000000000000000,11.73157523200000085
0.43012619018554688,-15.76341356527582072,20.45482067081154298,31.78671940484288783,0.59817254292529332,-0.00194779372214450,0.00254067523035244,0.80136094237196132,0.00000000000000000,0.00111111111111111,-0.00111111111111111,-0.16000000000000000,1.83000000000000007,9.61999999999999922,0.00000000000000000,0.00000000000000000,11.73157523200000085
0.44004893302917480,-15.79304184459069482,20.46090491485789187,31.81412576324536801,0.59811284683098676,-0.00186840092070438,0.00254366640606116,0.80140567835207299,0.00000000000000000,0.00111111111111111,-0.00111111111111111,-0.16000000000000000,1.83000000000000007,9.61999999999999922,0.00000000000000000,0.00000000000000000,11.73157523200000085
0.45003914833068848,-15.84126319645686465,20.40948570650945726,31.78400428029400970,0.59813506668241179,-0.00182734358129846,0.00278533393888266,0.80138838570016202,0.00111111111111111,0.00111111111111111,-0.00000000000000000,-0.14999999999999999,1.82000000000000006,9.61999999999999922,0.00000000000000000,0.00000000000000000,11.75462998400000103
0.46003270149230957,-15.83042919749570387,20.41592977567812994,31.77413495363211382,0.59811306759340099,-0.00194644851515988,0.00266088156955438,0.80140494721549027,0.00111111111111111,0.00111111111111111,-0.00000000000000000,-0.14999999999999999,1.82000000000000006,9.61999999999999922,0.00000000000000000,0.00000000000000000,11.75462998400000103
0.47003269195556641,-15.78289240590735254,20.44622728138034873,31.80194166230754504,0.59816288592644296,-0.00190478520548574,0.00261297370724280,0.80136802161171605,0.00111111111111111,0.00111111111111111,-0.00000000000000000,-0.14999999999999999,1.82000000000000006,9.61999999999999922,0.00000000000000000,0.00000000000000000,11.75462998400000103
0.48014330863952637,-15.81744522711995593,20.41740485477363976,31.76697134205641859,0.59807441326577504,-0.00189298779089932,0.00268522246928697,0.80143384154545960,0.00111111111111111,0.00111111111111111,-0.00000000000000000,-0.14999999999999999,1.82000000000000006,9.61999999999999922,0.00000000000000000,0.00000000000000000,11.75462998400000103
0.49003863334655762,-15.81723845658101446,20.44608224959961618,31.80393813163716388,0.59810107434864956,-0.00186401042256696,0.00260201785314619,0.80141428726422603,0.00111111111111111,0.00111111111111111,-0.00000000000000000,-0.14999999999999999,1.82000000000000006,9.61999999999999922,0.00000000000000000,0.00000000000000000,11.75462998400000103
0.50007987022399902,-15.80740615156753393,20.41465641309025614,31.77830088396337871,0.59813815056655129,-0.00182425917088646,0.00280347412896109,0.80138602773451884,0.00111111111111111,0.00111111111111111,-0.00000000000000000,-0.14999999999999999,1.82000000000000006,9.61999999999999922,0.00000000000000000,0.00000000000000000,11.75462998400000103
0.51012063026428223,-15.79167373636128957,20.46386001233913987,31.81050801315813104,0.59814801702223819,-0.00195137200534441,0.00246904943159308,0.80137946422064332,-0.00222222222222222,0.00333333333333333,-0.00000000000000000,-0.14000000000000001,1.83000000000000007,9.61999999999999922,0.00000000000000000,0.00000000000000000,11.73486876800000012
0.52008700370788574,-15.83307548050076186,20.44468890093722280,31.82064596544519830,0.59813530212862265,-0.00181588037925804,0.00269115933601248,0.80138855780911777,-0.00222222222222222,0.00333333333333333,-0.00000000000000000,-0.14000000000000001,1.83000000000000007,9.61999999999999922,0.00000000000000000,0.00000000000000000,11.73486876800000012
0.53013181686401367,-15.77039851148184368,20.45879452010927935,31.80560883496619695,0.59814265930906929,-0.00189103192124259,0.00257290642786829,0.80138328112424506,-0.00222222222222222,0.00333333333333333,-0.00000000000000000,-0.14000000000000001,1.83000000000000007,9.61999999999999922,0.00000000000000000,0.00000000000000000,11.73486876800000012
0.54008746147155762,-15.77633841897168132,20.43407646899942876,31.80349271442850068,0.59812095606894666,-0.00195451728685565,0.00253903816115263,0.80139943539945191,-0.00222222222222222,0.00333333333333333,-0.00000000000000000,-0.14000000000000001,1.83000000000000007,9.61999999999999922,0.00000000000000000,0.00000000000000000,11.73486876800000012
0.55009078979492188,-15.81977091520809608,20.43054976926577027,31.78815345846110674,0.59810126296871091,-0.00187099241310901,0.00268351317046829,0.80141386148461857,0.00111111111111111,0.00111111111111111,-0.00000000000000000,-0.14999999999999999,1.84000000000000008,9.63000000000000078,0.00000000000000000,0.00000000000000000,11.73816230400000116
0.56009864807128906,-15.81905152516873692,20.45666808835367689,31.82144377811290781,0.59812021653780945,-0.00190471433884433,0.00256352955231772,0.80140002929141829,0.00111111111111111,0.00111111111111111,-0.00000000000000000,-0.14999999999999999,1.84000000000000008,9.63000000000000078,0.00000000000000000,0.00000000000000000,11.73816230400000116
0.57008767127990723,-15.82664984292614463,20.45698093727856914,31.81851203657954841,0.59807281499405440,-0.00188855289150449,0.00252589977436883,0.80143556270195115,0.00111111111111111,0.00111111111111111,-0.00000000000000000,-0.14999999999999999,1.84000000000000008,9.63000000000000078,0.00000000000000000,0.00000000000000000,11.73816230400000116
0.58011341094970703,-15.79435672914819122,20.44600306624671404,31.80616920512710877,0.59807136698842722,-0.00190890926917320,0.00253230391387859,0.80143657483975816,0.00111111111111111,0.00111111111111111,-0.00000000000000000,-0.14999999999999999,1.84000000000000008,9.63000000000000078,0.00000000000000000,0.00000000000000000,11.73816230400000116
0.59009909629821777,-15.80770388727259501,20.42764549215641523,31.79726379340766584,0.59812136475801903,-0.00188502255564811,0.00259894257589540,0.80139910482072341,0.00111111111111111,0.00111111111111111,-0.00000000000000000,-0.14999999999999999,1.84000000000000008,9.63000000000000078,0.00000000000000000,0.00000000000000000,11.73816230400000116
0.60009503364562988,-15.80921939628874462,20.41626060231235584,31.77421758543287567,0.59812222161652506,-0.00186233581706300,0.00268511305224628,0.80139823426416035,0.00000000000000000,-0.00000000000000000,-0.00000000000000000,-0.14999999999999999,1.85000000000000009,9.60999999999999943,0.00000000000000000,0.00000000000000000,11.74474937599999969
0.61010289192199707,-15.78105272341921328,20.45568931248515199,31.84330113185315625,0.59815955720621095,-0.00192416633392064,0.00248407190813007,0.80137086988082129,0.00000000000000000,-0.00000000000000000,-0.00000000000000000,-0.14999999999999999,1.85000000000000009,9.60999999999999943,0.00000000000000000,0.00000000000000000,11.74474937599999969
0.62009525299072266,-15.84857191441155599,20.43923925972453404,31.81333239069049057,0.59804528724024941,-0.00185585285361334,0.00258174746104578,0.80145600303445252,0.00000000000000000,-0.00000000000000000,-0.00000000000000000,-0.14999999999999999,1.85000000000000009,9.60999999999999943,0.00000000000000000,0.00000000000000000,11.74474937599999969
0.63012933731079102,-15.80308618422166056,20.43250425514471758,31.77422180481092440,0.59810658537465833,-0.00193761485556227,0.00261171311436601,0.80140996820275889,0.00000000000000000,-0.00000000000000000,-0.00000000000000000,-0.14999999999999999,1.85000000000000009,9.60999999999999943,0.00000000000000000,0.00000000000000000,11.74474937599999969
0.64010906219482422,-15.80581180674845143,20.43856919264806749,31.78657891601383767,0.59808495926533145,-0.00192384200310101,0.00258996759645386,0.80142621145080062,0.00000000000000000,-0.00000000000000000,-0.00000000000000000,-0.14999999999999999,1.85000000000000009,9.60999999999999943,0.00000000000000000,0.00000000000000000,11.74474937599999969
0.65014863014221191,-15.79515919392198064,20.41819910168186425,31.78940634989269043,0.59805701908909015,-0.00193066480014943,0.00258065692661465,0.80144707539645366,-0.00111111111111111,0.00111111111111111,-0.00222222222222222,-0.16000000000000000,1.83000000000000007,9.64000000000000057,0.00000000000000000,0.00000000000000000,11.73816230400000116
0.66015648841857910,-15.86033840829242969,20.44927542339400262,31.82779629737460425,0.59802417629356808,-0.00189695995283176,0.00252147767560485,0.80147185119732578,-0.00111111111111111,0.00111111111111111,-0.00222222222222222,-0.16000000000000000,1.83000000000000007,9.64000000000000057,0.00000000000000000,0.00000000000000000,11.73816230400000116
0.67005753517150879,-15.81225788608679217,20.42936047360946361,31.77263911578620892,0.59811380025981298,-0.00191904301939307,0.00262311259646865,0.80140459101065809,-0.00111111111111111,0.00111111111111111,-0.00222222222222222,-0.16000000000000000,1.83000000000000007,9.64000000000000057,0.00000000000000000,0.00000000000000000,11.73816230400000116
0.68010258674621582,-15.85019303797785994,20.42967117704976943,31.78057946817934010,0.59807311799338381,-0.00189676807284172,0.00266753956466528,0.80143485826186822,-0.00111111111111111,0.00111111111111111,-0.00222222222222222,-0.16000000000000000,1.83000000000000007,9.64000000000000057,0.00000000000000000,0.00000000000000000,11.73816230400000116
0.69004440307617188,-15.78037707044978255,20.41061516607583215,31.78278804100293087,0.59818543138727998,-0.00191893322759178,0.00266557662249809,0.80135098556908979,-0.00111111111111111,0.00111111111111111,-0.00222222222222222,-0.16000000000000000,1.83000000000000007,9.64000000000000057,0.00000000000000000,0.00000000000000000,11.73816230400000116
0.70003557205200195,-15.81939943308105079,20.41611043994683783,31.76074433550315845,0.59811914870866656,-0.00190102601424855,0.00270752577226479,0.80140036146255011,0.00000000000000000,-0.00111111111111111,-0.00000000000000000,-0.16000000000000000,1.83000000000000007,9.64000000000000057,0.00000000000000000,0.00000000000000000,11.72498816000000055
0.71003317832946777,-15.78645556882919188,20.45698209374094390,31.78213455803642873,0.59817722320072209,-0.00194451106157593,0.00255847093062656,0.80135740013248902,0.00000000000000000,-0.00111111111111111,-0.00000000000000000,-0.16000000000000000,1.83000000000000007,9.64000000000000057,0.00000000000000000,0.00000000000000000,11.72498816000000055
0.72004389762878418,-15.78158709903491363,20.45986187447435256,31.78277204208292162,0.59815328202852269,-0.00186850730248290,0.00262463474969733,0.80137523743337469,0.00000000000000000,-0.00111111111111111,-0.00000000000000000,-0.16000000000000000,1.83000000000000007,9.64000000000000057,0.00000000000000000,0.00000000000000000,11.72498816000000055
0.73009538650512695,-15.77949136871674796,20.43172167457618826,31.74313126009866437,0.59814113131526181,-0.00192026316676232,0.00269481527029583,0.80138395141712704,0.00000000000000000,-0.00111111111111111,-0.00000000000000000,-0.16000000000000000,1.83000000000000007,9.64000000000000057,0.00000000000000000,0.00000000000000000,11.72498816000000055
0.74007558822631836,-15.81413846370642240,20.40958976340498410,31.75178527228589687,0.59808451076298230,-0.00188962224097665,0.00273358538779400,0.80142615057416111,0.00000000000000000,-0.00111111111111111,-0.00000000000000000,-0.16000000000000000,1.83000000000000007,9.64000000000000057,0.00000000000000000,0.00000000000000000,11.72498816000000055
0.75004601478576660,-15.83646361317131301,20.42733810910750236,31.78543073009416275,0.59811131530675476,-0.00188121415861646,0.00271000702482423,0.80140624616809586,0.00000000000000000,-0.00222222222222222,-0.00000000000000000,-0.16000000000000000,1.84000000000000008,9.59999999999999964,0.00000000000000000,0.00000000000000000,11.72169462400000128
0.76003837585449219,-15.84443996462406723,20.42181771037625282,31.78256926039145114,0.59809727896726872,-0.00184672305639145,0.00273650651045293,0.80141671185346552,0.00000000000000000,-0.00222222222222222,-0.00000000000000000,-0.16000000000000000,1.84000000000000008,9.59999999999999964,0.00000000000000000,0.00000000000000000,11.72169462400000128
0.77003479003906250,-15.83048772798668402,20.45208300359654885,31.80809821912621871,0.59816146406579085,-0.00177372901717437,0.00272339385946184,0.80136901607057998,0.00000000000000000,-0.00222222222222222,-0.00000000000000000,-0.16000000000000000,1.84000000000000008,9.59999999999999964,0.00000000000000000,0.00000000000000000,11.72169462400000128
0.78009033203125000,-15.80334736373264093,20.41640903797849660,31.77372105462949037,0.59806752025152476,-0.00191516366367178,0.00262082461704841,0.80143914594101318,0.00000000000000000,-0.00222222222222222,-0.00000000000000000,-0.16000000000000000,1.84000000000000008,9.59999999999999964,0.00000000000000000,0.00000000000000000,11.72169462400000128
0.79003739356994629,-15.79571941038669536,20.42074668425227557,31.77813043732861686,0.59810743971537694,-0.00188540961617828,0.00266311022921818,0.80140928596541938,0.00000000000000000,-0.00222222222222222,-0.00000000000000000,-0.16000000000000000,1.84000000000000008,9.59999999999999964,0.00000000000000000,0.00000000000000000,11.72169462400000128
0.80003619194030762,-15.83201322560912594,20.42262913390822021,31.75943589703188152,0.59813466677729321,-0.00182604005550948,0.00276929206378207,0.80138874274499128,-0.28444444444444444,0.00222222222222222,-0.00222222222222222,-0.16000000000000000,1.82000000000000006,9.61999999999999922,0.00000000000000000,0.00000000000000000,11.73486876800000012
0.81003427505493164,-15.83490717884166976,20.42248012959936077,31.77279009700359325,0.59810571906527399,-0.00186825303121925,0.00275257596231459,0.80141030800557778,-0.28444444444444444,0.00222222222222222,-0.00222222222222222,-0.16000000000000000,1.82000000000000006,9.61999999999999922,0.00000000000000000,0.00000000000000000,11.73486876800000012
0.82003784179687500,-15.85319452235306947,20.42153590977164868,31.79518017733612467,0.59809553059791409,-0.00191397951565196,0.00267644557700826,0.80141806168833396,-0.28444444444444444,0.00222222222222222,-0.00222222222222222,-0.16000000000000000,1.82000000000000006,9.61999999999999922,0.00000000000000000,0.00000000000000000,11.73486876800000012
0.83010196685791016,-15.82583747330075141,20.42777114479722655,31.80417166388863848,0.59806185391582833,-0.00189078056852080,0.00263362938995760,0.80144339028769851,-0.28444444444444444,0.00222222222222222,-0.00222222222222222,-0.16000000000000000,1.82000000000000006,9.61999999999999922,0.00000000000000000,0.00000000000000000,11.73486876800000012
0.84003067016601562,-15.81015721772598681,20.43400914860278306,31.79357253153590079,0.59809548228803477,-0.00188170677629229,0.00264192016569328,0.80141828872573706,-0.28444444444444444,0.00222222222222222,-0.00222222222222222,-0.16000000000000000,1.82000000000000006,9.61999999999999922,0.00000000000000000,0.00000000000000000,11.73486876800000012
0.85003519058227539,-15.81336961950964337,20.37282820964152918,31.76743810318512828,0.59811829713378950,-0.00181579151661775,0.00283014008356986,0.80140077105157004,-0.00111111111111111,-0.00222222222222222,0.00111111111111111,-0.16000000000000000,1.82000000000000006,9.64000000000000057,0.00000000000000000,0.00000000000000000,11.74804291200000073
0.86003398895263672,-15.84678014221544196,20.46160397450140067,31.83367997947086181,0.59805058527395405,-0.00185106320564824,0.00253190865943848,0.80145221969686387,-0.00111111111111111,-0.00222222222222222,0.00111111111111111,-0.16000000000000000,1.82000000000000006,9.64000000000000057,0.00000000000000000,0.00000000000000000,11.74804291200000073
0.87003135681152344,-15.81866398459885659,20.44604377717934796,31.81523618493011440,0.59809733542729859,-0.00192214654699997,0.00256504106451680,0.80141705950881470,-0.00111111111111111,-0.00222222222222222,0.00111111111111111,-0.16000000000000000,1.82000000000000006,9.64000000000000057,0.00000000000000000,0.00000000000000000,11.74804291200000073
0.88009738922119141,-15.79766013184190321,20.43014607052989362,31.78466565453470949,0.59808846816959615,-0.00191500452036030,0.00261629377530537,0.80142352848360643,-0.00111111111111111,-0.00222222222222222,0.00111111111111111,-0.16000000000000000,1.82000000000000006,9.64000000000000057,0.00000000000000000,0.00000000000000000,11.74804291200000073
0.89003705978393555,-15.81972844285674817,20.45083898501038888,31.79336258894842970,0.59808622645018317,-0.00192509803304320,0.00256256800054231,0.80142535084272548,-0.00111111111111111,-0.00222222222222222,0.00111111111111111,-0.16000000000000000,1.82000000000000006,9.64000000000000057,0.00000000000000000,0.00000000000000000,11.74804291200000073
0.90003299713134766,-15.86285856776106584,20.40605497767740317,31.80400105500764951,0.59806766690274538,-0.00183448055459095,0.00272129227428746,0.80143889040584959,-0.00111111111111111,-0.00222222222222222,0.00111111111111111,-0.16000000000000000,1.82000000000000006,9.64000000000000057,0.00000000000000000,0.00000000000000000,11.74804291200000073
0.91003394126892090,-15.85690904473239549,20.44611635364319469,31.82731098058141939,0.59802290375949718,-0.00187024880018533,0.00257532667028359,0.80147269226157980,0.00000000000000000,0.00111111111111111,-0.00000000000000000,-0.17000000000000001,1.83000000000000007,9.58999999999999986,0.00000000000000000,0.00000000000000000,11.72498816000000055
0.92003297805786133,-15.85848377547389454,20.43364268746728385,31.78587749141523489,0.59806036426071585,-0.00187949278644425,0.00268069397097479,0.80144437242209077,0.00000000000000000,0.00111111111111111,-0.00000000000000000,-0.17000000000000001,1.83000000000000007,9.58999999999999986,0.00000000000000000,0.00000000000000000,11.72498816000000055
0.93009972572326660,-15.85347194037838392,20.39972163599169974,31.79709459393793836,0.59804176866411474,-0.00187890069490820,0.00273968978713836,0.80145805053361796,0.00000000000000000,0.00111111111111111,-0.00000000000000000,-0.17000000000000001,1.83000000000000007,9.58999999999999986,0.00000000000000000,0.00000000000000000,11.72498816000000055
0.94005727767944336,-15.82338809691936810,20.43963002754765768,31.80223296734571647,0.59808433106382253,-0.00189007638732297,0.00263199033560434,0.80142662369930240,0.00000000000000000,0.00111111111111111,-0.00000000000000000,-0.17000000000000001,1.83000000000000007,9.58999999999999986,0.00000000000000000,0.00000000000000000,11.72498816000000055
0.95004129409790039,-15.82180536388777092,20.41742601087985065,31.76263171082648640,0.59811823905499195,-0.00184076708860019,0.00281106526598489,0.80140082455557249,-0.00111111111111111,0.00333333333333333,-0.00000000000000000,-0.14999999999999999,1.85000000000000009,9.64000000000000057,0.00000000000000000,0.00000000000000000,11.73157523200000085
0.96003484725952148,-15.78592905510758726,20.47260292821981054,31.84293120015229661,0.59810329533942808,-0.00193897330109745,0.00246872274089502,0.80141287355188107,-0.00111111111111111,0.00333333333333333,-0.00000000000000000,-0.14999999999999999,1.85000000000000009,9.64000000000000057,0.00000000000000000,0.00000000000000000,11.73157523200000085
0.97003626823425293,-15.82441575023400127,20.45568224615267283,31.80306007258677781,0.59813030334438944,-0.00188806689154615,0.00262814899582227,0.80139233104479934,-0.00111111111111111,0.00333333333333333,-0.00000000000000000,-0.14999999999999999,1.85000000000000009,9.64000000000000057,0.00000000000000000,0.00000000000000000,11.73157523200000085
0.98009347915649414,-15.78727856842615473,20.42871121269294576,31.78012670078225099,0.59812782548335275,-0.00196579523719044,0.00258848160797117,0.80139412263542731,-0.00111111111111111,0.00333333333333333,-0.00000000000000000,-0.14999999999999999,1.85000000000000009,9.64000000000000057,0.00000000000000000,0.00000000000000000,11.73157523200000085
0.99003648757934570,-15.80661993085083772,20.43359528466592678,31.78539935850722031,0.59810094995479002,-0.00189545394113881,0.00263753070363705,0.80141419025951999,-0.00111111111111111,0.00333333333333333,-0.00000000000000000,-0.14999999999999999,1.85000000000000009,9.64000000000000057,0.00000000000000000,0.00000000000000000,11.73157523200000085
1.00003433227539062,-15.83694242773214533,20.42954031631012057,31.78340721258403434,0.59812927257260240,-0.00182910745623303,0.00272748452779852,0.80139290518810669,-0.28444444444444444,-0.00111111111111111,-0.00111111111111111,-0.14999999999999999,1.84000000000000008,9.60999999999999943,0.00000000000000000,0.00000000000000000,11.72498816000000055
1.01003527641296387,-15.81310574632850319,20.43090567112490774,31.76961131411801276,0.59810403504851495,-0.00190257684262021,0.00263603126745220,0.80141187587856466,-0.28444444444444444,-0.00111111111111111,-0.00111111111111111,-0.14999999999999999,1.84000000000000008,9.60999999999999943,0.00000000000000000,0.00000000000000000,11.72498816000000055
1.02003550529479980,-15.80138915434572233,20.46139094191864061,31.81301254399508949,0.59812781446650776,-0.00186612791970456,0.00256608454883402,0.80139444117001102,-0.28444444444444444,-0.00111111111111111,-0.00111111111111111,-0.14999999999999999,1.84000000000000008,9.60999999999999943,0.00000000000000000,0.00000000000000000,11.72498816000000055
1.03014731407165527,-15.79138979182279989,20.42942596268227007,31.77186577870571682,0.59815362968627739,-0.00190959385487723,0.00269259834126376,0.80137465561284982,-0.28444444444444444,-0.00111111111111111,-0.00111111111111111,-0.14999999999999999,1.84000000000000008,9.60999999999999943,0.00000000000000000,0.00000000000000000,11.72498816000000055
1.04007267951965332,-15.76007876816698605,20.43736358386513885,31.79975288167882397,0.59815990299579447,-0.00188180778023347,0.00266229437005016,0.80137014009521668,-0.28444444444444444,-0.00111111111111111,-0.00111111111111111,-0.14999999999999999,1.84000000000000008,9.60999999999999943,0.00000000000000000,0.00000000000000000,11.72498816000000055
1.05003809928894043,-15.79549707471146291,20.41431209527555168,31.77092363870499625,0.59815950563326448,-0.00182469828407843,0.00279718859007046,0.80137010927082408,-0.00333333333333333,-0.00111111111111111,-0.00111111111111111,-0.17000000000000001,1.84000000000000008,9.61999999999999922,0.00000000000000000,0.00000000000000000,11.74474937599999969
1.06003332138061523,-15.83367188397799374,20.46576283651832640,31.77853375326279206,0.59812333385556038,-0.00185003399697881,0.00261239511918757,0.80139767298355713,-0.00333333333333333,-0.00111111111111111,-0.00111111111111111,-0.17000000000000001,1.84000000000000008,9.61999999999999922,0.00000000000000000,0.00000000000000000,11.74474937599999969
1.07003045082092285,-15.79677772485836762,20.47160914660605968,31.80249755083794128,0.59816682836251367,-0.00188629674187227,0.00256021621811585,0.80136529287476010,-0.00333333333333333,-0.00111111111111111,-0.00111111111111111,-0.17000000000000001,1.84000000000000008,9.61999999999999922,0.00000000000000000,0.00000000000000000,11.74474937599999969
1.08012747764587402,-15.77700113342289967,20.42989220823023189,31.77667360542512043,0.59814384514779351,-0.00192476625695023,0.00265008997439511,0.80138206419272695,-0.00333333333333333,-0.00111111111111111,-0.00111111111111111,-0.17000000000000001,1.84000000000000008,9.61999999999999922,0.00000000000000000,0.00000000000000000,11.74474937599999969
1.09003782272338867,-15.79936592769556647,20.46033800491867183,31.79110151585537736,0.59813198943152268,-0.00189143706624845,0.00257249418185582,0.80139124524678806,-0.00333333333333333,-0.00111111111111111,-0.00111111111111111,-0.17000000000000001,1.84000000000000008,9.61999999999999922,0.00000000000000000,0.00000000000000000,11.74474937599999969
1.10008239746093750,-15.82194980321245303,20.39776829071333353,31.76193961373354568,0.59816551630611114,-0.00194314474932168,0.00275924919576822,0.80136547581899364,0.00222222222222222,0.00222222222222222,-0.00111111111111111,-0.16000000000000000,1.82000000000000006,9.61999999999999922,0.00000000000000000,0.00000000000000000,11.73816230400000116
1.11007142066955566,-15.80002378390695661,20.45516798113397883,31.80129476151762447,0.59812152293610665,-0.00188273278012308,0.00257211633881328,0.80139907869638249,0.00222222222222222,0.00222222222222222,-0.00111111111111111,-0.16000000000000000,1.82000000000000006,9.61999999999999922,0.00000000000000000,0.00000000000000000,11.73816230400000116
1.12003326416015625,-15.81116385227574916,20.44246279412826084,31.80083065983320623,0.59809843303666443,-0.00185321688226210,0.00258736506615826,0.80141633095931364,0.00222222222222222,0.00222222222222222,-0.00111111111111111,-0.16000000000000000,1.82000000000000006,9.61999999999999922,0.00000000000000000,0.00000000000000000,11.73816230400000116
1.13004708290100098,-15.74750247004816650,20.43935744397974474,31.80791919063801387,0.59816735523970743,-0.00190950550926003,0.00257541852976828,0.80136479591609244,0.00222222222222222,0.00222222222222222,-0.00111111111111111,-0.16000000000000000,1.82000000000000006,9.61999999999999922,0.00000000000000000,0.00000000000000000,11.73816230400000116
1.14006900787353516,-15.76300276192725391,20.44994758539575130,31.82207786768568880,0.59815067320305237,-0.00190244790785504,0.00255704249989826,0.80137732334546774,0.00222222222222222,0.00222222222222222,-0.00111111111111111,-0.16000000000000000,1.82000000000000006,9.61999999999999922,0.00000000000000000,0.00000000000000000,11.73816230400000116
1.15003156661987305,-15.82474841690051903,20.43089701295552985,31.79738651409444117,0.59814656351748996,-0.00185481273713497,0.00265554243581255,0.80138018213348594,0.00222222222222222,0.00222222222222222,-0.00111111111111111,-0.16000000000000000,1.82000000000000006,9.61999999999999922,0.00000000000000000,0.00000000000000000,11.73816230400000116
1.16003727912902832,-15.74986773921791006,20.47947987567255268,31.82777485051290611,0.59817001097533640,-0.00183567615068610,0.00253606340662310,0.80136311160748686,0.00222222222222222,-0.00000000000000000,-0.00111111111111111,-0.14000000000000001,1.82000000000000006,9.63000000000000078,0.00000000000000000,0.00000000000000000,11.73486876800000012
1.17003607749938965,-15.81188248951024455,20.41243415732644806,31.77655815814129525,0.59817705825032375,-0.00181681544793847,0.00275222320207327,0.80135718093248698,0.00222222222222222,-0.00000000000000000,-0.00111111111111111,-0.14000000000000001,1.82000000000000006,9.63000000000000078,0.00000000000000000,0.00000000000000000,11.73486876800000012
1.18009424209594727,-15.79445672050911220,20.41206907246626301,31.80531202633067878,0.59811815447590622,-0.00190418742688348,0.00260943451645087,0.80140142139135462,0.00222222222222222,-0.00000000000000000,-0.00111111111111111,-0.14000000000000001,1.82000000000000006,9.63000000000000078,0.00000000000000000,0.00000000000000000,11.73486876800000012
1.19005107879638672,-15.75366457072102300,20.44472656873682936,31.82876457161637518,0.59812734271523071,-0.00198202243294388,0.00245583192578547,0.80139486046083708,0.00222222222222222,-0.00000000000000000,-0.00111111111111111,-0.14000000000000001,1.82000000000000006,9.63000000000000078,0.00000000000000000,0.00000000000000000,11.73486876800000012
1.20003175735473633,-15.76502279739166568,20.44512976464003629,31.78371189868301983,0.59818273161062452,-0.00197215111416797,0.00256651218375488,0.80135319506322888,0.00222222222222222,-0.00000000000000000,-0.00000000000000000,-0.14999999999999999,1.83000000000000007,9.61999999999999922,0.00000000000000000,0.00000000000000000,11.73157523200000085
1.21003198623657227,-15.79240799102002768,20.44259977356284352,31.75418168956285214,0.59821941121872968,-0.00184670279670251,0.00276703591085951,0.80132544527312066,0.00222222222222222,-0.00000000000000000,-0.00000000000000000,-0.14999999999999999,1.83000000000000007,9.61999999999999922,0.00000000000000000,0.00000000000000000,11.73157523200000085
1.22002911567687988,-15.83195874347157961,20.42586136531730645,31.77667242386608493,0.59815347059377744,-0.00178160151663099,0.00283299889234767,0.80137458509109893,0.00222222222222222,-0.00000000000000000,-0.00000000000000000,-0.14999999999999999,1.83000000000000007,9.61999999999999922,0.00000000000000000,0.00000000000000000,11.73157523200000085
1.23011612892150879,-15.77296098460224094,20.37759750937437531,31.75062317184047345,0.59815562997155813,-0.00187146164607585,0.00281557916725977,0.80137282988543346,0.00222222222222222,-0.00000000000000000,-0.00000000000000000,-0.14999999999999999,1.83000000000000007,9.61999999999999922,0.00000000000000000,0.00000000000000000,11.73157523200000085
1.24005198478698730,-15.76982994621516809,20.40467985359173042,31.74535431361809046,0.59820955284556721,-0.00185717464693512,0.00277939288616313,0.80133273785726589,0.00222222222222222,-0.00000000000000000,-0.00000000000000000,-0.14999999999999999,1.83000000000000007,9.61999999999999922,0.00000000000000000,0.00000000000000000,11.73157523200000085
1.25003480911254883,-15.83068164192806648,20.39800112534911136,31.74139812347391043,0.59821229012801391,-0.00176958454209298,0.00296975153962585,0.80133020976757063,0.28333333333333333,-0.00111111111111111,-0.28333333333333333,-0.16000000000000000,1.83000000000000007,9.59999999999999964,0.00000000000000000,0.00000000000000000,11.71510755200000098
1.26003193855285645,-15.80459004471975426,20.41248198675032910,31.77164506215309814,0.59817170111727258,-0.00180404699321810,0.00287911392450591,0.80136076276538770,0.28333333333333333,-0.00111111111111111,-0.28333333333333333,-0.16000000000000000,1.83000000000000007,9.59999999999999964,0.00000000000000000,0.00000000000000000,11.71510755200000098
1.27003574371337891,-15.81321251555668539,20.41802711972278317,31.78437065085637414,0.59819323068334707,-0.00175455020712540,0.00287305784296909,0.80134482331691737,0.28333333333333333,-0.00111111111111111,-0.28333333333333333,-0.16000000000000000,1.83000000000000007,9.59999999999999964,0.00000000000000000,0.00000000000000000,11.71510755200000098
1.28008222579956055,-15.77437746531023777,20.42068279486234772,31.76129846553459757,0.59817902906164000,-0.00185873552744834,0.00277783198566423,0.80135552530856879,0.28333333333333333,-0.00111111111111111,-0.28333333333333333,-0.16000000000000000,1.83000000000000007,9.59999999999999964,0.00000000000000000,0.00000000000000000,11.71510755200000098
1.29006099700927734,-15.67859558874834569,20.45478274817288877,31.79104088917711124,0.59833242852494251,-0.00186521176621263,0.00262730520503345,0.80124148870853629,0.28333333333333333,-0.00111111111111111,-0.28333333333333333,-0.16000000000000000,1.83000000000000007,9.59999999999999964,0.00000000000000000,0.00000000000000000,11.71510755200000098
1.30003333091735840,-15.73740232142520235,20.43942018063803800,31.79524432354846297,0.59831340316869253,-0.00180708266879115,0.00269323936099008,0.80125560996642664,0.00000000000000000,-0.00222222222222222,-0.00000000000000000,-0.14999999999999999,1.82000000000000006,9.61999999999999922,0.00000000000000000,0.00000000000000000,11.72498816000000055
1.31003165245056152,-15.73162694559883334,20.45467765733461718,31.79300948743141930,0.59830093485653235,-0.00181408096266353,0.00267773359346871,0.80126495630525563,0.00000000000000000,-0.00222222222222222,-0.00000000000000000,-0.14999999999999999,1.82000000000000006,9.61999999999999922,0.00000000000000000,0.00000000000000000,11.72498816000000055
1.32003068923950195,-15.71438853848606776,20.43809567052888099,31.76929013189412387,0.59831163113204566,-0.00184285305262766,0.00265958776781527,0.80125696411179026,0.00000000000000000,-0.00222222222222222,-0.00000000000000000,-0.14999999999999999,1.82000000000000006,9.61999999999999922,0.00000000000000000,0.00000000000000000,11.72498816000000055
1.33007693290710449,-15.75288842782457266,20.45994649938335641,31.83327391491384972,0.59824746120072125,-0.00183257731008178,0.00251808763491557,0.80130535756474075,0.00000000000000000,-0.00222222222222222,-0.00000000000000000,-0.14999999999999999,1.82000000000000006,9.61999999999999922,0.00000000000000000,0.00000000000000000,11.72498816000000055
1.34004974365234375,-15.71152794967527200,20.45741089159828618,31.77750389072851434,0.59830007311831901,-0.00188303479408826,0.00264894450222451,0.80126553637330644,0.00000000000000000,-0.00222222222222222,-0.00000000000000000,-0.14999999999999999,1.82000000000000006,9.61999999999999922,0.00000000000000000,0.00000000000000000,11.72498816000000055
1.35003185272216797,-15.77677303118037422,20.43437836450730316,31.80069149296387465,0.59820315931175327,-0.00177452152922653,0.00275127470380058,0.80133779503420688,-0.00111111111111111,-0.00111111111111111,-0.00111111111111111,-0.16000000000000000,1.83000000000000007,9.61999999999999922,0.00000000000000000,0.00000000000000000,11.72498816000000055
1.36003637313842773,-15.75665208051461263,20.43128468784593110,31.77211093137031739,0.59825491905140882,-0.00188347560777809,0.00271498257523657,0.80129902859047808,-0.00111111111111111,-0.00111111111111111,-0.00111111111111111,-0.16000000000000000,1.83000000000000007,9.61999999999999922,0.00000000000000000,0.00000000000000000,11.72498816000000055
1.37003064155578613,-15.73025239306294054,20.45536004810255548,31.76595693508868123,0.59827599922254138,-0.00188272312416665,0.00265720148109323,0.80128348503397717,-0.00111111111111111,-0.00111111111111111,-0.00111111111111111,-0.16000000000000000,1.83000000000000007,9.61999999999999922,0.00000000000000000,0.00000000000000000,11.72498816000000055
1.38007926940917969,-15.76383017898005789,20.42567447947921622,31.79103937151385750,0.59819330587024777,-0.00187854252545465,0.00264439645989024,0.80134527331067917,-0.00111111111111111,-0.00111111111111111,-0.00111111111111111,-0.16000000000000000,1.83000000000000007,9.61999999999999922,0.00000000000000000,0.00000000000000000,11.72498816000000055
1.39004421234130859,-15.76098085170829144,20.46164566517770922,31.81033470316650025,0.59817275649717239,-0.00187959996635717,0.00253659178521894,0.80136095873872959,-0.00111111111111111,-0.00111111111111111,-0.00111111111111111,-0.16000000000000000,1.83000000000000007,9.61999999999999922,0.00000000000000000,0.00000000000000000,11.72498816000000055
1.40003466606140137,-15.76499627367195977,20.40945264636091494,31.76659804207427840,0.59821903485745875,-0.00184369735057071,0.00274479779351718,0.80132580964259692,0.00000000000000000,-0.00222222222222222,-0.28222222222222221,-0.16000000000000000,1.83000000000000007,9.65000000000000036,0.00000000000000000,0.00000000000000000,11.72169462400000128
1.41003847122192383,-15.79743493919942843,20.41444341330459267,31.76910273181222877,0.59818973340895831,-0.00183806626876976,0.00278293002961266,0.80134756482874614,0.00000000000000000,-0.00222222222222222,-0.28222222222222221,-0.16000000000000000,1.83000000000000007,9.65000000000000036,0.00000000000000000,0.00000000000000000,11.72169462400000128
1.42003154754638672,-15.79385292199925139,20.42490558173516035,31.75271853971216274,0.59822053987975932,-0.00183792282553286,0.00278420805064463,0.80132456338938451,0.00000000000000000,-0.00222222222222222,-0.28222222222222221,-0.16000000000000000,1.83000000000000007,9.65000000000000036,0.00000000000000000,0.00000000000000000,11.72169462400000128
1.43009495735168457,-15.79363368570427362,20.42342188174521311,31.79918761329235721,0.59816854928209517,-0.00185489934129114,0.00266814978563626,0.80136372951045687,0.00000000000000000,-0.00222222222222222,-0.28222222222222221,-0.16000000000000000,1.83000000000000007,9.65000000000000036,0.00000000000000000,0.00000000000000000,11.72169462400000128
1.44005060195922852,-15.75192691949435186,20.42559424045357730,31.76093608722928607,0.59818146857755283,-0.00189781569602369,0.00269682825732905,0.80135388940426100,0.00000000000000000,-0.00222222222222222,-0.28222222222222221,-0.16000000000000000,1.83000000000000007,9.65000000000000036,0.00000000000000000,0.00000000000000000,11.72169462400000128
1.45007085800170898,-15.77566849556712647,20.43188640949604107,31.78315604527745108,0.59819131967646599,-0.00181945439082223,0.00270027516283421,0.80134670596658319,0.00222222222222222,-0.00222222222222222,-0.00000000000000000,-0.17000000000000001,1.84000000000000008,9.60999999999999943,0.00000000000000000,0.00000000000000000,11.72828169599999981
1.46003222465515137,-15.80127451729546806,20.45870666780215430,31.80166917816130479,0.59816294120950042,-0.00185041170317697,0.00265278215255226,0.80136797695377082,0.00222222222222222,-0.00222222222222222,-0.00000000000000000,-0.17000000000000001,1.84000000000000008,9.60999999999999943,0.00000000000000000,0.00000000000000000,11.72828169599999981
1.47003412246704102,-15.81471000548397399,20.42138865935498870,31.76858171996636671,0.59817078662169532,-0.00182207758589809,0.00276507353062900,0.80136180619868780,0.00222222222222222,-0.00222222222222222,-0.00000000000000000,-0.17000000000000001,1.84000000000000008,9.60999999999999943,0.00000000000000000,0.00000000000000000,11.72828169599999981
1.48011374473571777,-15.75880485378639229,20.42900847093050132,31.76579396189838533,0.59818429376260296,-0.00190113982236347,0.00265619901488634,0.80135190832112280,0.00222222222222222,-0.00222222222222222,-0.00000000000000000,-0.17000000000000001,1.84000000000000008,9.60999999999999943,0.00000000000000000,0.00000000000000000,11.72828169599999981
1.49004745483398438,-15.74072762082525401,20.43726399473667854,31.75956877610039442,0.59822108064527013,-0.00189969484056582,0.00267788255495621,0.80132437799940925,0.00222222222222222,-0.00222222222222222,-0.00000000000000000,-0.17000000000000001,1.84000000000000008,9.60999999999999943,0.00000000000000000,0.00000000000000000,11.72828169599999981
1.50010108947753906,-15.78944564344039314,20.43849608446467414,31.73416744278672397,0.59821438352869072,-0.00183736339250056,0.00282999820734589,0.80132900018987163,-0.00111111111111111,-0.00000000000000000,-0.00111111111111111,-0.14999999999999999,1.83000000000000007,9.61999999999999922,0.00000000000000000,0.00000000000000000,11.74804291200000073
1.51006436347961426,-15.81994431476888430,20.41046386924287503,31.75730361358074205,0.59816029401270499,-0.00186884479383437,0.00277237297256530,0.80136950530568074,-0.00111111111111111,-0.00000000000000000,-0.00111111111111111,-0.14999999999999999,1.83000000000000007,9.61999999999999922,0.00000000000000000,0.00000000000000000,11.74804291200000073
1.52009606361389160,-15.80697812375834665,20.40961886746127973,31.73957884860489642,0.59818675420552248,-0.00190407350499095,0.00273250081766100,0.80134980815897816,-0.00111111111111111,-0.00000000000000000,-0.00111111111111111,-0.14999999999999999,1.83000000000000007,9.61999999999999922,0.00000000000000000,0.00000000000000000,11.74804291200000073
1.53008818626403809,-15.76071510923964958,20.41454201806654112,31.76896542415271085,0.59817190699386635,-0.00198266514955694,0.00262769773967410,0.80136105091701026,-0.00111111111111111,-0.00000000000000000,-0.00111111111111111,-0.14999999999999999,1.83000000000000007,9.61999999999999922,0.00000000000000000,0.00000000000000000,11.74804291200000073
1.54009675979614258,-15.78650998658519278,20.40750600877774801,31.75734043505114812,0.59814711962801181,-0.00188964612118867,0.00273138669869724,0.80137943075983176,-0.00111111111111111,-0.00000000000000000,-0.00111111111111111,-0.14999999999999999,1.83000000000000007,9.61999999999999922,0.00000000000000000,0.00000000000000000,11.74804291200000073
1.55010485649108887,-15.85282783441533105,20.41155876416391379,31.76093593504270984,0.59812053036094570,-0.00188432367736366,0.00274275964315570,0.80139924990890754,-0.00333333333333333,0.00111111111111111,-0.00000000000000000,-0.17000000000000001,1.82000000000000006,9.63000000000000078,0.00000000000000000,0.00000000000000000,11.71510755200000098
1.56007218360900879,-15.81581855849474927,20.42278621258459381,31.80773958965481896,0.59815352942821221,-0.00185228732862555,0.00270265437904001,0.80137483110185881,-0.00333333333333333,0.00111111111111111,-0.00000000000000000,-0.17000000000000001,1.82000000000000006,9.63000000000000078,0.00000000000000000,0.00000000000000000,11.71510755200000098
1.57003450393676758,-15.79382814541005509,20.43206469111405710,31.77333301832784329,0.59816591482943182,-0.00190120423566634,0.00269354442108082,0.80136550248758198,-0.00333333333333333,0.00111111111111111,-0.00000000000000000,-0.17000000000000001,1.82000000000000006,9.63000000000000078,0.00000000000000000,0.00000000000000000,11.71510755200000098
1.58012509346008301,-15.77230239208026319,20.41629280502575838,31.75047140790334765,0.59817760856209512,-0.00191533468740300,0.00271566228055575,0.80135666546572515,-0.00333333333333333,0.00111111111111111,-0.00000000000000000,-0.17000000000000001,1.82000000000000006,9.63000000000000078,0.00000000000000000,0.00000000000000000,11.71510755200000098
1.59006595611572266,-15.75205008543839291,20.45440458075859524,31.77670373275559257,0.59817762764691207,-0.00193206635425064,0.00257374161630505,0.80135707943238821,-0.00333333333333333,0.00111111111111111,-0.00000000000000000,-0.17000000000000001,1.82000000000000006,9.63000000000000078,0.00000000000000000,0.00000000000000000,11.71510755200000098
1.60005307197570801,-15.83677293719552814,20.41902728469061401,31.76702655051037993,0.59810448729939092,-0.00178165957119370,0.00275067819985320,0.80141143099593082,0.00111111111111111,-0.00222222222222222,-0.00111111111111111,-0.16000000000000000,1.86000000000000010,9.60999999999999943,0.00000000000000000,0.00000000000000000,11.75133644799999999
1.61003470420837402,-15.78300769878782717,20.43892205036796383,31.75921093535723116,0.59817659175460292,-0.00192447792432539,0.00264838225194827,0.80135762773746233,0.00111111111111111,-0.00222222222222222,-0.00111111111111111,-0.16000000000000000,1.86000000000000010,9.60999999999999943,0.00000000000000000,0.00000000000000000,11.75133644799999999
1.62003493309020996,-15.80432810895117335,20.42876613128348495,31.78543698095104375,0.59816900432863918,-0.00183079082510364,0.00270648540097341,0.80136331673106498,0.00111111111111111,-0.00222222222222222,-0.00111111111111111,-0.16000000000000000,1.86000000000000010,9.60999999999999943,0.00000000000000000,0.00000000000000000,11.75133644799999999
1.63008975982666016,-15.78522990921119629,20.44171887456769809,31.75659368717974829,0.59814774958954753,-0.00190770364508329,0.00267908182011368,0.80137909434197496,0.00111111111111111,-0.00222222222222222,-0.00111111111111111,-0.16000000000000000,1.86000000000000010,9.60999999999999943,0.00000000000000000,0.00000000000000000,11.75133644799999999
1.64010286331176758,-15.76524854027255174,20.43299560609797183,31.77360566973242229,0.59817733495147163,-0.00189460848600219,0.00265501348938535,0.80135712220732835,0.00111111111111111,-0.00222222222222222,-0.00111111111111111,-0.16000000000000000,1.86000000000000010,9.60999999999999943,0.00000000000000000,0.00000000000000000,11.75133644799999999
1.65009808540344238,-15.83715930599091415,20.38994762460865573,31.77332738838008552,0.59814060422682347,-0.00179359550819253,0.00282611766155409,0.80138418604891792,0.00000000000000000,-0.00333333333333333,-0.00000000000000000,-0.17000000000000001,1.83000000000000007,9.63000000000000078,0.00000000000000000,0.00000000000000000,11.74804291200000073
1.66010403633117676,-15.79072766351828250,20.45470774117770318,31.78273965339490914,0.59817712245468202,-0.00184147002044159,0.00269399872439086,0.80135727458535810,0.00000000000000000,-0.00333333333333333,-0.00000000000000000,-0.17000000000000001,1.83000000000000007,9.63000000000000078,0.00000000000000000,0.00000000000000000,11.74804291200000073
1.67008399963378906,-15.81908539670982350,20.43692702016811324,31.79219358499274506,0.59814179561795011,-0.00190001409561687,0.00265354817471438,0.80138364156217679,0.00000000000000000,-0.00333333333333333,-0.00000000000000000,-0.17000000000000001,1.83000000000000007,9.63000000000000078,0.00000000000000000,0.00000000000000000,11.74804291200000073
1.68009209632873535,-15.78565081953773586,20.42796352740761634,31.77387707479802614,0.59813526796047967,-0.00186271403317364,0.00268373808539323,0.80138850070871637,0.00000000000000000,-0.00333333333333333,-0.00000000000000000,-0.17000000000000001,1.83000000000000007,9.63000000000000078,0.00000000000000000,0.00000000000000000,11.74804291200000073
1.69012594223022461,-15.77541024829991478,20.43681614188819751,31.77684943285893482,0.59816799566122603,-0.00192407678815041,0.00263636420656662,0.80136408484465760,0.00000000000000000,-0.00333333333333333,-0.00000000000000000,-0.17000000000000001,1.83000000000000007,9.63000000000000078,0.00000000000000000,0.00000000000000000,11.74804291200000073
1.70009922981262207,-15.80360660320818589,20.39373804138674373,31.77919714939255869,0.59819220542581597,-0.00184356622044723,0.00275475448087523,0.80134580423131896,0.00111111111111111,-0.00111111111111111,-0.00333333333333333,-0.16000000000000000,1.82000000000000006,9.63000000000000078,0.00000000000000000,0.00000000000000000,11.73486876800000012
1.71010255813598633,-15.79139231915463881,20.41152360609982352,31.76142772629539479,0.59815268809800326,-0.00188058372430041,0.00273503110120352,0.80137528332914287,0.00111111111111111,-0.00111111111111111,-0.00333333333333333,-0.16000000000000000,1.82000000000000006,9.63000000000000078,0.00000000000000000,0.00000000000000000,11.73486876800000012
1.72008562088012695,-15.77271485309690568,20.41575104972422139,31.76237565915038275,0.59818936736953943,-0.00196216723557911,0.00266513360574063,0.80134794423435896,0.00111111111111111,-0.00111111111111111,-0.00333333333333333,-0.16000000000000000,1.82000000000000006,9.63000000000000078,0.00000000000000000,0.00000000000000000,11.73486876800000012
1.73009204864501953,-15.78101440854413795,20.44303888834091865,31.77220947576531174,0.59817386281611518,-0.00192380348568211,0.00267130631786159,0.80135959028787573,0.00111111111111111,-0.00111111111111111,-0.00333333333333333,-0.16000000000000000,1.82000000000000006,9.63000000000000078,0.00000000000000000,0.00000000000000000,11.73486876800000012
1.74010419845581055,-15.83145901587194260,20.40827052796523944,31.80039302751242758,0.59805396975024494,-0.00190611108728096,0.00265597244020317,0.80144916358861640,0.00111111111111111,-0.00111111111111111,-0.00333333333333333,-0.16000000000000000,1.82000000000000006,9.63000000000000078,0.00000000000000000,0.00000000000000000,11.73486876800000012
1.75010251998901367,-15.82207122604273231,20.42288781911434725,31.76739315803076735,0.59816591334540659,-0.00189163484025007,0.00268357027906520,0.80136555970408663,-0.28444444444444444,-0.00222222222222222,0.00111111111111111,-0.16000000000000000,1.82000000000000006,9.61999999999999922,0.00000000000000000,0.00000000000000000,11.73486876800000012
1.76010417938232422,-15.79154766411017796,20.44849497375833280,31.77325015432630551,0.59816888613952102,-0.00192043037086899,0.00260813134484058,0.80136352128898591,-0.28444444444444444,-0.00222222222222222,0.00111111111111111,-0.16000000000000000,1.82000000000000006,9.61999999999999922,0.00000000000000000,0.00000000000000000,11.73486876800000012
1.77008581161499023,-15.84994544751318735,20.44336848448618227,31.78978899473049680,0.59807149995255937,-0.00187713260630914,0.00257069629643437,0.80143642844471796,-0.28444444444444444,-0.00222222222222222,0.00111111111111111,-0.16000000000000000,1.82000000000000006,9.61999999999999922,0.00000000000000000,0.00000000000000000,11.73486876800000012
1.78008675575256348,-15.78872309518992800,20.44626650372642018,31.77350145059570607,0.59814775565565037,-0.00190113412138851,0.00263587798773770,0.80137924869589350,-0.28444444444444444,-0.00222222222222222,0.00111111111111111,-0.16000000000000000,1.82000000000000006,9.61999999999999922,0.00000000000000000,0.00000000000000000,11.73486876800000012
1.79009675979614258,-15.78174222129798387,20.44000394999143921,31.79115687372683396,0.59808581707587349,-0.00194482637610527,0.00251436962557409,0.80142576138307287,-0.28444444444444444,-0.00222222222222222,0.00111111111111111,-0.16000000000000000,1.82000000000000006,9.61999999999999922,0.00000000000000000,0.00000000000000000,11.73486876800000012
1.80009531974792480,-15.80748191309421635,20.42643904319013259,31.79628212301648560,0.59812895853909598,-0.00192426834205524,0.00262772479929917,0.80139325004061701,0.00111111111111111,-0.00000000000000000,0.00111111111111111,-0.16000000000000000,1.83000000000000007,9.61999999999999922,0.00000000000000000,0.00000000000000000,11.74145584000000042
1.81010198593139648,-15.79510527764194627,20.42894492562331621,31.75541507075915959,0.59815823074240781,-0.00190040190969241,0.00268642953730997,0.80137126387463808,0.00111111111111111,-0.00000000000000000,0.00111111111111111,-0.16000000000000000,1.83000000000000007,9.61999999999999922,0.00000000000000000,0.00000000000000000,11.74145584000000042
1.82016158103942871,-15.81383766632613153,20.41996742750819749,31.77988558910747940,0.59815938195103202,-0.00184253657606328,0.00268803190782507,0.80137053435186156,0.00111111111111111,-0.00000000000000000,0.00111111111111111,-0.16000000000000000,1.83000000000000007,9.61999999999999922,0.00000000000000000,0.00000000000000000,11.74145584000000042
1.83008456230163574,-15.80201539247424058,20.42171346337265803,31.77239728053936219,0.59811496810272524,-0.00185851981283204,0.00270215172182667,0.80140359945014783,0.00111111111111111,-0.00000000000000000,0.00111111111111111,-0.16000000000000000,1.83000000000000007,9.61999999999999922,0.00000000000000000,0.00000000000000000,11.74145584000000042
1.84008359909057617,-15.80334225104149937,20.42398797148059941,31.78309180355996588,0.59812408450760968,-0.00186162389336744,0.00267676302959146,0.80139687348285604,0.00111111111111111,-0.00000000000000000,0.00111111111111111,-0.16000000000000000,1.83000000000000007,9.61999999999999922,0.00000000000000000,0.00000000000000000,11.74145584000000042
1.85009765625000000,-15.83798421541569290,20.41703492341730453,31.78102953697620237,0.59813144845191979,-0.00182965806739263,0.00275522130778887,0.80139118505241214,0.00222222222222222,-0.00333333333333333,-0.00111111111111111,-0.13000000000000000,1.83000000000000007,9.63000000000000078,0.00000000000000000,0.00000000000000000,11.71840108800000024
1.86009526252746582,-15.77648128399451366,20.45317623211861147,31.77319510148160475,0.59820856267373801,-0.00193933066272356,0.00262719129508238,0.80133379587179587,0.00222222222222222,-0.00333333333333333,-0.00111111111111111,-0.13000000000000000,1.83000000000000007,9.63000000000000078,0.00000000000000000,0.00000000000000000,11.71840108800000024
1.87009000778198242,-15.79052628393891133,20.42427240612012795,31.75994629683141568,0.59818969311376791,-0.00185781349546051,0.00272895616079437,0.80134773499383194,0.00222222222222222,-0.00333333333333333,-0.00111111111111111,-0.13000000000000000,1.83000000000000007,9.63000000000000078,0.00000000000000000,0.00000000000000000,11.71840108800000024
1.88011360168457031,-15.79285894231565202,20.44232930780166058,31.79091871224165189,0.59811840710741981,-0.00190186679105132,0.00256575978225092,0.80140137937161748,0.00222222222222222,-0.00333333333333333,-0.00111111111111111,-0.13000000000000000,1.83000000000000007,9.63000000000000078,0.00000000000000000,0.00000000000000000,11.71840108800000024
1.89006638526916504,-15.81901214246800258,20.41898774525705562,31.76684318579354738,0.59809861808241283,-0.00187543945358262,0.00269584602276172,0.80141578359113030,0.00222222222222222,-0.00333333333333333,-0.00111111111111111,-0.13000000000000000,1.83000000000000007,9.63000000000000078,0.00000000000000000,0.00000000000000000,11.71840108800000024
1.90003538131713867,-15.80418602615456791,20.42083604093307869,31.77658815043965035,0.59818797226245368,-0.00186131639754196,0.00269165754953183,0.80134913759324577,0.00111111111111111,-0.00222222222222222,-0.28333333333333333,-0.14000000000000001,1.83000000000000007,9.63000000000000078,-2.10000000000000009,2.10000000000000009,11.71510755200000098
1.91003489494323730,-15.82011813952757429,20.40846043048970770,31.78471300120262910,0.59816284026815936,-0.00185121245633580,0.00273973803372246,0.80136775788041104,0.00111111111111111,-0.00222222222222222,-0.28333333333333333,-0.14000000000000001,1.83000000000000007,9.63000000000000078,-2.10000000000000009,2.10000000000000009,11.71510755200000098
1.92003417015075684,-15.78361937385482783,20.42018525129192241,31.78119515143443152,0.59822245934333085,-0.00186507583456095,0.00269166723386685,0.80132338388246893,0.00111111111111111,-0.00222222222222222,-0.28333333333333333,-0.14000000000000001,1.83000000000000007,9.63000000000000078,-2.10000000000000009,2.10000000000000009,11.71510755200000098
1.93007445335388184,-15.73485542287859573,20.41092852715115669,31.80364603817889702,0.59825672361822313,-0.00185885419160333,0.00264078602285108,0.80129798674142760,0.00111111111111111,-0.00222222222222222,-0.28333333333333333,-0.14000000000000001,1.83000000000000007,9.63000000000000078,-2.10000000000000009,2.10000000000000009,11.71510755200000098
1.94010186195373535,-15.73607783363350698,20.41845077750870274,31.78347612786181742,0.59822969484165134,-0.00196117631338547,0.00259830668550327,0.80131806094677582,0.00111111111111111,-0.00222222222222222,-0.28333333333333333,-0.14000000000000001,1.83000000000000007,9.63000000000000078,-2.10000000000000009,2.10000000000000009,11.71510755200000098
1.95009994506835938,-15.77103345214008279,20.42249151444726252,31.79303275934973882,0.59823616234509103,-0.00184189486562643,0.00270389400827012,0.80131316627340765,0.00000000000000000,-0.00333333333333333,-0.28222222222222221,-0.20000000000000001,1.87000000000000011,9.63000000000000078,-18.60000000000000142,18.60000000000000142,11.74804291200000073
1.96011543273925781,-15.74076190553940613,20.48335394509896545,31.84506082456583798,0.59830278338589804,-0.00179743952066597,0.00255402933507067,0.80126401737380670,0.00000000000000000,-0.00333333333333333,-0.28222222222222221,-0.20000000000000001,1.87000000000000011,9.63000000000000078,-18.60000000000000142,18.60000000000000142,11.74804291200000073
1.97009897232055664,-15.81413782914071930,20.42383213875730519,31.90641645476198462,0.59839485345925647,-0.00158840900901835,0.00270044035905037,0.80119522211016836,0.00000000000000000,-0.00333333333333333,-0.28222222222222221,-0.20000000000000001,1.87000000000000011,9.63000000000000078,-18.60000000000000142,18.60000000000000142,11.74804291200000073
1.98010754585266113,-15.81326543023296871,20.60972323039486653,31.90479700707706101,0.59903377547014147,-0.00177936788556311,0.00259291806532082,0.80071758221723988,0.00000000000000000,-0.00333333333333333,-0.28222222222222221,-0.20000000000000001,1.87000000000000011,9.63000000000000078,-18.60000000000000142,18.60000000000000142,11.74804291200000073
1.99005866050720215,-15.86012740779538888,20.81457138721485478,31.86066300665557449,0.60025522603751313,-0.00188707092682293,0.00279518040713284,0.79980140631563212,0.00000000000000000,-0.00333333333333333,-0.28222222222222221,-0.20000000000000001,1.87000000000000011,9.63000000000000078,-18.60000000000000142,18.60000000000000142,11.74804291200000073
2.00003767013549805,-15.86819862041495277,21.06543274409021649,31.73370318353601149,0.60184642484108519,-0.00206351359014456,0.00293885325073863,0.79860377281805905,0.00000000000000000,-0.00333333333333333,-0.28222222222222221,-0.20000000000000001,1.87000000000000011,9.63000000000000078,-18.60000000000000142,18.60000000000000142,11.74804291200000073
2.01003575325012207,-15.78897210336617718,21.32923700421931912,31.70259712535198204,0.60402173948475835,-0.00224494117727673,0.00295129940387268,0.79695921369963818,0.00000000000000000,-0.00444444444444444,-0.27888888888888891,4.88999999999999968,1.76000000000000001,8.75999999999999979,-30.60000000000000142,30.60000000000000142,11.69534633600000006
2.02005577087402344,-15.73765285304658867,21.43061640788188171,31.63954699201429221,0.60656038393226441,-0.00229961567425161,0.00314799400065404,0.79502786274788317,0.00000000000000000,-0.00444444444444444,-0.27888888888888891,4.88999999999999968,1.76000000000000001,8.75999999999999979,-30.60000000000000142,30.60000000000000142,11.69534633600000006
2.03011512756347656,-15.60037432509648703,21.58651076864725837,31.67234546258932326,0.60935762639788760,-0.00235739906709848,0.00283570768388534,0.79288693051550685,0.00000000000000000,-0.00444444444444444,-0.27888888888888891,4.88999999999999968,1.76000000000000001,8.75999999999999979,-30.60000000000000142,30.60000000000000142,11.69534633600000006
2.04005455970764160,-15.55413633820445796,21.65827866555308745,31.71441865247554048,0.61280967081623161,-0.00222490558260901,0.00287827167394612,0.79022216667303213,0.00000000000000000,-0.00444444444444444,-0.27888888888888891,4.88999999999999968,1.76000000000000001,8.75999999999999979,-30.60000000000000142,30.60000000000000142,11.69534633600000006
2.05003833770751953,-15.34378860570070024,21.72852032770822106,31.73650664502411800,0.61643734825697416,-0.00225737597800582,0.00263731377772997,0.78739630714376707,0.00000000000000000,-0.00444444444444444,-0.27888888888888891,4.88999999999999968,1.76000000000000001,8.75999999999999979,-30.60000000000000142,30.60000000000000142,11.69534633600000006
2.06003570556640625,-15.17318429098906130,21.71851025205742758,31.72943409597511888,0.62040483180844375,-0.00241156117702285,0.00247829035463597,0.78427411478279985,0.00333333333333333,0.15777777777777777,-0.55444444444444441,-3.02999999999999980,2.04999999999999982,9.55000000000000071,-40.29999999999999716,40.29999999999999716,11.71181401599999994
2.07007074356079102,-14.97118951172494938,21.70083478955224265,31.66158466884806089,0.62402638699727297,-0.00270621709103450,0.00249516609945938,0.78139459869282546,0.00333333333333333,0.15777777777777777,-0.55444444444444441,-3.02999999999999980,2.04999999999999982,9.55000000000000071,-40.29999999999999716,40.29999999999999716,11.71181401599999994
2.08008646965026855,-14.70804662347479486,21.73375843978300637,31.53457593817668325,0.62877049708268640,-0.00260579626326645,0.00273558655489769,0.77758175672428587,0.00333333333333333,0.15777777777777777,-0.55444444444444441,-3.02999999999999980,2.04999999999999982,9.55000000000000071,-40.29999999999999716,40.29999999999999716,11.71181401599999994
2.09012460708618164,-14.39595958430632550,21.78074451810838852,31.45001119375885423,0.63395845513216886,-0.00262773565723776,0.00274884756089149,0.77335775421782416,0.00333333333333333,0.15777777777777777,-0.55444444444444441,-3.02999999999999980,2.04999999999999982,9.55000000000000071,-40.29999999999999716,40.29999999999999716,11.71181401599999994
2.10009694099426270,-14.47192616937718945,21.70235404547109326,31.39196729598613800,0.63855219581886702,-0.00247437202254589,0.00343945933589099,0.76956685272786662,0.00000000000000000,-0.01111111111111111,-0.98333333333333328,-0.11000000000000000,1.11000000000000010,9.38000000000000078,-44.79999999999999716,44.79999999999999716,11.66899804800000062
2.11010313034057617,-14.41812539105837665,21.49231984229862391,31.30032303501915791,0.64395057730487903,-0.00249607926152461,0.00425098336803973,0.76505120921245406,0.00000000000000000,-0.01111111111111111,-0.98333333333333328,-0.11000000000000000,1.11000000000000010,9.38000000000000078,-44.79999999999999716,44.79999999999999716,11.66899804800000062
2.12018370628356934,-13.99619643723072748,21.51497190417416050,31.44425818193353450,0.64962394776462729,-0.00297677242935900,0.00376408835554841,0.76024055203300989,0.00000000000000000,-0.01111111111111111,-0.98333333333333328,-0.11000000000000000,1.11000000000000010,9.38000000000000078,-44.79999999999999716,44.79999999999999716,11.66899804800000062
2.13008856773376465,-13.71902737823153018,21.53655370303110317,31.64542692071686858,0.65486682240574401,-0.00294251363881861,0.00384890218085996,0.75572876912136333,0.00000000000000000,-0.01111111111111111,-0.98333333333333328,-0.11000000000000000,1.11000000000000010,9.38000000000000078,-44.79999999999999716,44.79999999999999716,11.66899804800000062
2.14009308815002441,-13.76984663025748468,21.43070358861276858,31.60510584365096065,0.66075085908465669,-0.00257796521212040,0.00470363463760848,0.75058612572805361,0.00000000000000000,-0.01111111111111111,-0.98333333333333328,-0.11000000000000000,1.11000000000000010,9.38000000000000078,-44.79999999999999716,44.79999999999999716,11.66899804800000062
2.15009713172912598,-13.74758185100806429,21.43508208159946093,31.73856545647769067,0.66583716216618083,-0.00205240536770081,0.00484062715274456,0.74607856787302385,0.02444444444444445,0.02888888888888889,-1.38999999999999990,-1.39999999999999991,1.31000000000000005,9.63000000000000078,-45.00000000000000000,45.00000000000000000,11.73486876800000012
2.16006612777709961,-13.53028160763034116,21.43577816171412564,31.82844086483110857,0.67152317077577617,-0.00199009367961759,0.00483895296835325,0.74096508363927904,0.02444444444444445,0.02888888888888889,-1.38999999999999990,-1.39999999999999991,1.31000000000000005,9.63000000000000078,-45.00000000000000000,45.00000000000000000,11.73486876800000012
2.17005586624145508,-13.27231105712828985,21.22722318253467577,31.83654844112555793,0.67757088395591603,-0.00207868296374907,0.00527467956558080,0.73543562196008350,0.02444444444444445,0.02888888888888889,-1.38999999999999990,-1.39999999999999991,1.31000000000000005,9.63000000000000078,-45.00000000000000000,45.00000000000000000,11.73486876800000012
2.18009567260742188,-12.97528391546324578,21.18152411155930892,31.66266271242258412,0.68309456181582007,-0.00230011062553415,0.00524108139951184,0.73030751069294531,0.02444444444444445,0.02888888888888889,-1.38999999999999990,-1.39999999999999991,1.31000000000000005,9.63000000000000078,-45.00000000000000000,45.00000000000000000,11.73486876800000012
2.19008541107177734,-12.75761530952018852,21.28566025572663989,31.73367638819799552,0.68905366033382165,-0.00243247209138557,0.00463012354225605,0.72469145035392191,0.02444444444444445,0.02888888888888889,-1.38999999999999990,-1.39999999999999991,1.31000000000000005,9.63000000000000078,-45.00000000000000000,45.00000000000000000,11.73486876800000012
2.20005273818969727,-12.64579739874868558,21.15844581288143900,31.60000434801959912,0.69436959756413874,-0.00294482480843528,0.00465187308632356,0.71959749170091769,0.04888888888888889,-0.06000000000000000,-1.57000000000000006,2.00000000000000000,1.42999999999999994,9.50000000000000000,-45.00000000000000000,45.00000000000000000,11.70193340800000037
2.21006846427917480,-12.41935509237043078,21.14876098857456910,31.61194780425277528,0.70036777444113629,-0.00295269302859612,0.00457422514991293,0.71376140172506308,0.04888888888888889,-0.06000000000000000,-1.57000000000000006,2.00000000000000000,1.42999999999999994,9.50000000000000000,-45.00000000000000000,45.00000000000000000,11.70193340800000037
2.22009396553039551,-12.16760155623210693,21.01185061761788475,31.78660406248564030,0.70565105721587551,-0.00294761745334690,0.00470499510109739,0.70853776188892326,0.04888888888888889,-0.06000000000000000,-1.57000000000000006,2.00000000000000000,1.42999999999999994,9.50000000000000000,-45.00000000000000000,45.00000000000000000,11.70193340800000037
2.23009085655212402,-12.09231787767288324,20.98054950801822471,31.85043163561268997,0.71148737058525902,-0.00261172196434777,0.00506208478750159,0.70267579701001481,0.04888888888888889,-0.06000000000000000,-1.57000000000000006,2.00000000000000000,1.42999999999999994,9.50000000000000000,-45.00000000000000000,45.00000000000000000,11.70193340800000037
2.24008703231811523,-11.82506202244799454,20.94466703152575704,32.05287038501642627,0.71702629136257812,-0.00249538030350441,0.00548728902810779,0.69702005726599425,0.04888888888888889,-0.06000000000000000,-1.57000000000000006,2.00000000000000000,1.42999999999999994,9.50000000000000000,-45.00000000000000000,45.00000000000000000,11.70193340800000037
2.25023365020751953,-11.51289610182653611,20.79256630874417411,32.14197926500664693,0.72264719851678105,-0.00292632419836018,0.00518764902464528,0.69119139997552848,0.01555555555555556,-0.01777777777777778,-1.67999999999999994,1.32000000000000006,1.67999999999999994,8.06000000000000050,-45.00000000000000000,45.00000000000000000,11.72828169599999981
2.26017689704895020,-11.33457369623976341,20.91177193196923056,32.18260899121818142,0.72793692114757780,-0.00285618979469136,0.00461774599684932,0.68562260568912869,0.01555555555555556,-0.01777777777777778,-1.67999999999999994,1.32000000000000006,1.67999999999999994,8.06000000000000050,-45.00000000000000000,45.00000000000000000,11.72828169599999981
2.27019095420837402,-11.10637314980696466,20.86329189671068818,32.06585968730730229,0.73382115124997294,-0.00308607563529871,0.00387281494092894,0.67932466127748581,0.01555555555555556,-0.01777777777777778,-1.67999999999999994,1.32000000000000006,1.67999999999999994,8.06000000000000050,-45.00000000000000000,45.00000000000000000,11.72828169599999981
2.28015112876892090,-10.92378211580045644,20.86450307292795969,32.02108408171624632,0.73891113456596524,-0.00307385134826456,0.00343143802291176,0.67378714137732054,0.01555555555555556,-0.01777777777777778,-1.67999999999999994,1.32000000000000006,1.67999999999999994,8.06000000000000050,-45.00000000000000000,45.00000000000000000,11.72828169599999981
2.29014658927917480,-10.65473525045464420,20.65033302607977816,31.97126017480776383,0.74464202958447989,-0.00356522004534918,0.00363876828516246,0.66744460170691455,0.01555555555555556,-0.01777777777777778,-1.67999999999999994,1.32000000000000006,1.67999999999999994,8.06000000000000050,-45.00000000000000000,45.00000000000000000,11.72828169599999981
2.30006146430969238,-10.72382978433187795,20.36502712760151113,32.02060946998322777,0.74993588337586259,-0.00356830876679827,0.00426085866624985,0.66148717529611678,0.01777777777777778,0.00444444444444444,-1.68666666666666676,0.47999999999999998,1.71999999999999997,9.05000000000000071,-45.00000000000000000,45.00000000000000000,11.72498816000000055
2.31003046035766602,-10.43817469748125681,20.18682588318158366,32.15760997523098297,0.75559954704019616,-0.00382771720961210,0.00420479551145346,0.65500915473626842,0.01777777777777778,0.00444444444444444,-1.68666666666666676,0.47999999999999998,1.71999999999999997,9.05000000000000071,-45.00000000000000000,45.00000000000000000,11.72498816000000055
2.32002997398376465,-10.39510905929780904,19.99467918494368135,32.18522779087405894,0.76039239044032514,-0.00368219704713343,0.00458741188711200,0.64943730231449748,0.01777777777777778,0.00444444444444444,-1.68666666666666676,0.47999999999999998,1.71999999999999997,9.05000000000000071,-45.00000000000000000,45.00000000000000000,11.72498816000000055
2.33007335662841797,-10.20511152215031636,19.83725800415690799,32.02100097895979047,0.76583361502651359,-0.00379493774912628,0.00495995335208360,0.64300845360356462,0.01777777777777778,0.00444444444444444,-1.68666666666666676,0.47999999999999998,1.71999999999999997,9.05000000000000071,-45.00000000000000000,45.00000000000000000,11.72498816000000055
2.34005570411682129,-9.76585305377409618,19.78043912845390295,31.90768491646129590,0.77124597994877242,-0.00396222157685831,0.00478614463216329,0.63650689865279053,0.01777777777777778,0.00444444444444444,-1.68666666666666676,0.47999999999999998,1.71999999999999997,9.05000000000000071,-45.00000000000000000,45.00000000000000000,11.72498816000000055
2.35003018379211426,-9.49226207561995317,19.84882880870094723,31.89376804802882859,0.77612834925295904,-0.00408038314431624,0.00458625524890988,0.63054508341756532,0.02888888888888889,0.01444444444444444,-1.69111111111111101,1.50000000000000000,1.35000000000000009,9.19999999999999929,-45.00000000000000000,45.00000000000000000,11.72828169599999981
2.36003565788269043,-9.13530650686997348,20.04634995497258387,32.08296734932692829,0.78140319605522157,-0.00423188559133320,0.00388664807178102,0.62400002428348755,0.02888888888888889,0.01444444444444444,-1.69111111111111101,1.50000000000000000,1.35000000000000009,9.19999999999999929,-45.00000000000000000,45.00000000000000000,11.72828169599999981
2.37004113197326660,-8.70795094418755689,20.06872198023826215,32.20864985335092001,0.78651832441975045,-0.00403644252665916,0.00328308527237103,0.61754502170673464,0.02888888888888889,0.01444444444444444,-1.69111111111111101,1.50000000000000000,1.35000000000000009,9.19999999999999929,-45.00000000000000000,45.00000000000000000,11.72828169599999981
2.38007164001464844,-8.50892732572489052,19.85367983318235829,32.33439868776562065,0.79121849248996012,-0.00427825090677245,0.00298848407246717,0.61151129398731641,0.02888888888888889,0.01444444444444444,-1.69111111111111101,1.50000000000000000,1.35000000000000009,9.19999999999999929,-45.00000000000000000,45.00000000000000000,11.72828169599999981
2.39003229141235352,-8.28547158375442905,19.68268517527417671,32.36210007433846414,0.79621665826129928,-0.00430513487743307,0.00259087234491661,0.60499073240950496,0.02888888888888889,0.01444444444444444,-1.69111111111111101,1.50000000000000000,1.35000000000000009,9.19999999999999929,-45.00000000000000000,45.00000000000000000,11.72828169599999981
2.40003728866577148,-8.18535787571231310,19.69510808465441087,32.39479747793783559,0.80074963274818189,-0.00426550898753157,0.00259142355609314,0.59897839327531865,0.03111111111111111,-0.02111111111111111,-1.67999999999999994,0.39000000000000001,1.37999999999999989,9.91999999999999993,-45.00000000000000000,45.00000000000000000,11.71510755200000098
2.41003131866455078,-8.06026041123891446,19.40030964230903621,32.39892165704865334,0.80583002348042787,-0.00462502882789223,0.00280346890250001,0.59212221958645239,0.03111111111111111,-0.02111111111111111,-1.67999999999999994,0.39000000000000001,1.37999999999999989,9.91999999999999993,-45.00000000000000000,45.00000000000000000,11.71510755200000098
2.42003083229064941,-8.06391330497639558,19.28759966380776802,32.22428898929845786,0.81080824600301316,-0.00392009040692214,0.00364750162915065,0.58528737970042088,0.03111111111111111,-0.02111111111111111,-1.67999999999999994,0.39000000000000001,1.37999999999999989,9.91999999999999993,-45.00000000000000000,45.00000000000000000,11.71510755200000098
2.43008565902709961,-7.71136393619720195,19.27868383337284897,32.16549427857714960,0.81555441078782975,-0.00361758411538131,0.00318657142432197,0.57866031650031258,0.03111111111111111,-0.02111111111111111,-1.67999999999999994,0.39000000000000001,1.37999999999999989,9.91999999999999993,-45.00000000000000000,45.00000000000000000,11.71510755200000098
2.44003343582153320,-7.40739541542052837,19.20995944730924876,32.20242522911634353,0.82041123188575349,-0.00328701824121746,0.00296436775527130,0.57175678275871267,0.03111111111111111,-0.02111111111111111,-1.67999999999999994,0.39000000000000001,1.37999999999999989,9.91999999999999993,-45.00000000000000000,45.00000000000000000,11.71510755200000098
2.45003366470336914,-7.52652001437268847,18.96539897523280516,32.18982632559382040,0.82484917869695229,-0.00327349977652796,0.00374994877214233,0.56533092475680369,0.05333333333333334,0.02444444444444445,-1.71777777777777785,1.06000000000000005,1.25000000000000000,10.11999999999999922,-45.00000000000000000,45.00000000000000000,11.72828169599999981
2.46003174781799316,-7.40943907211782005,18.91490936099378573,32.21632508762953506,0.82957426158560865,-0.00311100664802397,0.00351713500440590,0.55837666132610597,0.05333333333333334,0.02444444444444445,-1.71777777777777785,1.06000000000000005,1.25000000000000000,10.11999999999999922,-45.00000000000000000,45.00000000000000000,11.72828169599999981
2.47003078460693359,-6.97563001310038544,19.01802515101777757,32.31656885671493029,0.83441905239713721,-0.00317026599212376,0.00254915802552426,0.55111550169049250,0.05333333333333334,0.02444444444444445,-1.71777777777777785,1.06000000000000005,1.25000000000000000,10.11999999999999922,-45.00000000000000000,45.00000000000000000,11.72828169599999981
2.48009991645812988,-6.70483303479715698,19.05528635465650211,32.28887934459437048,0.83875715893619851,-0.00332623793104982,0.00204909285209474,0.54449165805637989,0.05333333333333334,0.02444444444444445,-1.71777777777777785,1.06000000000000005,1.25000000000000000,10.11999999999999922,-45.00000000000000000,45.00000000000000000,11.72828169599999981
2.49003195762634277,-6.74259827234507281,18.76879639517438036,32.39639678638678078,0.84350924249118542,-0.00347190266968208,0.00255569040550650,0.53709735818597137,0.05333333333333334,0.02444444444444445,-1.71777777777777785,1.06000000000000005,1.25000000000000000,10.11999999999999922,-45.00000000000000000,45.00000000000000000,11.72828169599999981
2.50003194808959961,-6.51211542766593698,18.74732542122556822,32.38354161200017955,0.84767033372121814,-0.00332910676486544,0.00234151741431044,0.53050771876882774,0.05555555555555555,-0.03444444444444444,-1.68888888888888888,-1.02000000000000002,1.32000000000000006,9.48000000000000043,-45.00000000000000000,45.00000000000000000,11.71840108800000024
2.51003122329711914,-6.28635046387452245,18.72559344883605448,32.31863866881975866,0.85201177135623374,-0.00311525623170149,0.00206508200923663,0.52350928557697873,0.05555555555555555,-0.03444444444444444,-1.68888888888888888,-1.02000000000000002,1.32000000000000006,9.48000000000000043,-45.00000000000000000,45.00000000000000000,11.71840108800000024
2.52003097534179688,-6.11146998215752557,18.40514534201315655,32.33895169803486880,0.85643502439290708,-0.00332912542912517,0.00232119139438375,0.51623887686565051,0.05555555555555555,-0.03444444444444444,-1.68888888888888888,-1.02000000000000002,1.32000000000000006,9.48000000000000043,-45.00000000000000000,45.00000000000000000,11.71840108800000024
2.53008604049682617,-6.05399533516924304,18.05415652026844242,32.40878902985774346,0.86053462033179184,-0.00363544981125957,0.00249008481363887,0.50937289895783588,0.05555555555555555,-0.03444444444444444,-1.68888888888888888,-1.02000000000000002,1.32000000000000006,9.48000000000000043,-45.00000000000000000,45.00000000000000000,11.71840108800000024
2.54003190994262695,-5.87607482409237480,17.95756959167125189,32.48272000341825816,0.86493470251903204,-0.00349735672962049,0.00210103148944217,0.50186782576780042,0.05555555555555555,-0.03444444444444444,-1.68888888888888888,-1.02000000000000002,1.32000000000000006,9.48000000000000043,-45.00000000000000000,45.00000000000000000,11.71840108800000024
2.55003213882446289,-5.85007956236395454,17.59662489913264949,32.46320013689837225,0.86864976339633015,-0.00357239889919107,0.00245115509369437,0.49540772940711314,0.05555555555555555,-0.03444444444444444,-1.68888888888888888,-1.02000000000000002,1.32000000000000006,9.48000000000000043,-45.00000000000000000,45.00000000000000000,11.71840108800000024
2.56003165245056152,-5.78783500487435276,17.08646255175872852,32.60479027714892908,0.87286738178304057,-0.00372357802153106,0.00242046456025843,0.48793730144071773,0.03000000000000000,0.02888888888888889,-1.71222222222222231,0.09000000000000000,1.73999999999999999,11.03999999999999915,-45.00000000000000000,45.00000000000000000,11.72169462400000128
2.57003116607666016,-5.74290033563674740,16.85191003669450538,32.38128609432320815,0.87688249491882708,-0.00352320985471143,0.00306365284093272,0.48068211026469770,0.03000000000000000,0.02888888888888889,-1.71222222222222231,0.09000000000000000,1.73999999999999999,11.03999999999999915,-45.00000000000000000,45.00000000000000000,11.72169462400000128
2.58008527755737305,-5.54471083724132985,16.65515330615869516,32.11175247908875718,0.88060243288887929,-0.00389880819215623,0.00350819123548713,0.47382681127087239,0.03000000000000000,0.02888888888888889,-1.71222222222222231,0.09000000000000000,1.73999999999999999,11.03999999999999915,-45.00000000000000000,45.00000000000000000,11.72169462400000128
2.59004473686218262,-5.52639365293541118,16.46664345272578700,32.15749506921304146,0.88459143519694039,-0.00392318359114247,0.00337398376626896,0.46633809370484952,0.03000000000000000,0.02888888888888889,-1.71222222222222231,0.09000000000000000,1.73999999999999999,11.03999999999999915,-45.00000000000000000,45.00000000000000000,11.72169462400000128
2.60003209114074707,-5.57101664620870451,16.47430312761836291,32.09636946446951100,0.88795149520661842,-0.00371131125278508,0.00367434754830591,0.45990745536380478,0.03000000000000000,0.02888888888888889,-1.71222222222222231,0.09000000000000000,1.73999999999999999,11.03999999999999915,-45.00000000000000000,45.00000000000000000,11.72169462400000128
2.61003208160400391,-5.63085686791436046,16.21401536405165800,32.18787634896057881,0.89159980276184936,-0.00369197046264907,0.00388292504451270,0.45279253964948823,0.04555555555555556,-0.04555555555555556,-1.67999999999999994,0.70999999999999996,1.47999999999999998,11.03999999999999915,-36.20000000000000284,36.20000000000000284,11.73816230400000116
2.62003159523010254,-5.38719612473161646,15.98084919566604789,32.18309159989058799,0.89522791501399579,-0.00357857832995896,0.00371799651673986,0.44557866921423905,0.04555555555555556,-0.04555555555555556,-1.67999999999999994,0.70999999999999996,1.47999999999999998,11.03999999999999915,-36.20000000000000284,36.20000000000000284,11.73816230400000116
2.63008928298950195,-5.19391302450152637,15.71859173625113471,32.28792589868680096,0.89842234628092088,-0.00376544751652635,0.00370982816080887,0.43910061066127298,0.04555555555555556,-0.04555555555555556,-1.67999999999999994,0.70999999999999996,1.47999999999999998,11.03999999999999915,-36.20000000000000284,36.20000000000000284,11.73816230400000116
2.64003133773803711,-4.98138277747456470,15.31962714175756446,32.26111987486262223,0.90197127291140433,-0.00358312377339714,0.00301937227616770,0.43177061903013125,0.04555555555555556,-0.04555555555555556,-1.67999999999999994,0.70999999999999996,1.47999999999999998,11.03999999999999915,-36.20000000000000284,36.20000000000000284,11.73816230400000116
2.65003156661987305,-4.91092738719342048,15.17388487672207020,32.40527487742459556,0.90512699302677468,-0.00322117416751394,0.00296122843729735,0.42511878534996994,0.03888888888888889,-0.00555555555555556,-1.67333333333333334,-0.65000000000000002,1.40999999999999992,9.48000000000000043,-6.59999999999999964,6.59999999999999964,11.73816230400000116
2.66003131866455078,-4.61856908392277887,14.86840268088513994,32.62674245593434108,0.90853224298939517,-0.00354832218872179,0.00243452646305472,0.41779258722385737,0.03888888888888889,-0.00555555555555556,-1.67333333333333334,-0.65000000000000002,1.40999999999999992,9.48000000000000043,-6.59999999999999964,6.59999999999999964,11.73816230400000116
2.67003726959228516,-4.73258332220681677,14.71869362995130359,32.77444187137564313,0.91120929257669869,-0.00339856962087778,0.00225932445772127,0.41192350054275800,0.03888888888888889,-0.00555555555555556,-1.67333333333333334,-0.65000000000000002,1.40999999999999992,9.48000000000000043,-6.59999999999999964,6.59999999999999964,11.73816230400000116
2.68009543418884277,-4.81962830279071408,14.69634030309949502,32.85750089267815355,0.91316072748478838,-0.00358430553568732,0.00211631338648867,0.40757840932871980,0.03888888888888889,-0.00555555555555556,-1.67333333333333334,-0.65000000000000002,1.40999999999999992,9.48000000000000043,-6.59999999999999964,6.59999999999999964,11.73816230400000116
2.69003653526306152,-4.77023523210812073,14.73536367210027720,32.86893899766197791,0.91473739843159418,-0.00378012932870924,0.00182838989412940,0.40402705295964081,0.03888888888888889,-0.00555555555555556,-1.67333333333333334,-0.65000000000000002,1.40999999999999992,9.48000000000000043,-6.59999999999999964,6.59999999999999964,11.73816230400000116
2.70003175735473633,-4.95013827271916806,14.93053239255127984,32.87098163473222456,0.91582321255854260,-0.00347008508009170,0.00154420717058377,0.40156371508479449,0.05666666666666666,-0.04555555555555556,-1.50555555555555554,-1.12000000000000011,3.33000000000000007,8.61999999999999922,0.29999999999999999,-0.29999999999999999,11.72169462400000128
2.71004080772399902,-5.04696468303218193,14.90938424123154959,32.91761562093969218,0.91662746070474521,-0.00353111094527579,0.00181616074936987,0.39972281783455343,0.05666666666666666,-0.04555555555555556,-1.50555555555555554,-1.12000000000000011,3.33000000000000007,8.61999999999999922,0.29999999999999999,-0.29999999999999999,11.72169462400000128
2.72003936767578125,-5.24504444235114420,14.95846033544564513,32.88803106516429153,0.91706325079084072,-0.00318038279687536,0.00218425255361806,0.39872309721783439,0.05666666666666666,-0.04555555555555556,-1.50555555555555554,-1.12000000000000011,3.33000000000000007,8.61999999999999922,0.29999999999999999,-0.29999999999999999,11.72169462400000128
2.73007750511169434,-5.18841391301939847,14.87528652208678182,32.93510487249517382,0.91727659398369654,-0.00339367613102019,0.00207063917999862,0.39823089476505014,0.05666666666666666,-0.04555555555555556,-1.50555555555555554,-1.12000000000000011,3.33000000000000007,8.61999999999999922,0.29999999999999999,-0.29999999999999999,11.72169462400000128
2.74002981185913086,-5.16140700185157630,14.86336868199079753,32.93346106047575717,0.91730405678743054,-0.00341877706325360,0.00202576912484740,0.39816764763622664,0.05666666666666666,-0.04555555555555556,-1.50555555555555554,-1.12000000000000011,3.33000000000000007,8.61999999999999922,0.29999999999999999,-0.29999999999999999,11.72169462400000128
2.75002932548522949,-5.15259892963887456,14.90189295040448769,32.93197905943734582,0.91718772192552811,-0.00340765251029979,0.00216872281470620,0.39843489718495051,0.05666666666666666,-0.04555555555555556,-1.50555555555555554,-1.12000000000000011,3.33000000000000007,8.61999999999999922,0.29999999999999999,-0.29999999999999999,11.72169462400000128
2.76003503799438477,-5.22921899739081208,15.01492052675047262,32.94434308287110724,0.91706895288349177,-0.00319831847935139,0.00227700065752836,0.39870931978583896,0.01000000000000000,-0.00333333333333333,-0.11444444444444445,-0.47999999999999998,1.03000000000000003,8.78999999999999915,27.60000000000000142,-27.60000000000000142,11.74474937599999969
2.77005243301391602,-5.19333468737665793,15.01878952896246666,32.90576537773795707,0.91676800038248107,-0.00343518976488468,0.00217268830216484,0.39939943962345287,0.01000000000000000,-0.00333333333333333,-0.11444444444444445,-0.47999999999999998,1.03000000000000003,8.78999999999999915,27.60000000000000142,-27.60000000000000142,11.74474937599999969
2.78002882003784180,-5.28469780446504434,15.10635269520299495,32.98546704583515776,0.91607679505431938,-0.00336631996390024,0.00213179202220281,0.40098307809143396,0.01000000000000000,-0.00333333333333333,-0.11444444444444445,-0.47999999999999998,1.03000000000000003,8.78999999999999915,27.60000000000000142,-27.60000000000000142,11.74474937599999969
2.79005050659179688,-5.52708576443163224,15.31272370684017936,32.91636887726064487,0.91488338990132079,-0.00335769224035175,0.00245801689460400,0.40369675121114451,0.01000000000000000,-0.00333333333333333,-0.11444444444444445,-0.47999999999999998,1.03000000000000003,8.78999999999999915,27.60000000000000142,-27.60000000000000142,11.74474937599999969
2.80007076263427734,-5.63253948873603871,15.48543449431143948,32.91501279979330263,0.91346667643209567,-0.00321837606329515,0.00250378176983355,0.40689311149301294,0.01000000000000000,-0.00333333333333333,-0.11444444444444445,-0.47999999999999998,1.03000000000000003,8.78999999999999915,27.60000000000000142,-27.60000000000000142,11.74474937599999969
2.81003713607788086,-5.56234210087984593,15.64182282847280270,32.87572515920905403,0.91175839928675673,-0.00338270271396674,0.00224013475971211,0.41070690333698917,0.01000000000000000,-0.00333333333333333,-0.11444444444444445,-0.47999999999999998,1.03000000000000003,8.78999999999999915,27.60000000000000142,-27.60000000000000142,11.74474937599999969
2.82005476951599121,-5.37401985995276732,15.68816275401465532,32.88300003421779394,0.90983744336963968,-0.00354997612979371,0.00190884427421836,0.41494527425386152,-0.00111111111111111,0.03555555555555556,0.15666666666666668,0.64000000000000001,0.34999999999999998,10.72000000000000064,60.50000000000000000,-29.50000000000000000,11.68875926399999976
2.83005213737487793,-5.42596158960269737,15.66194722084985891,32.85587902664494919,0.90799347637981842,-0.00364016935298525,0.00203881960448515,0.41896352971755690,-0.00111111111111111,0.03555555555555556,0.15666666666666668,0.64000000000000001,0.34999999999999998,10.72000000000000064,60.50000000000000000,-29.50000000000000000,11.68875926399999976
2.84003639221191406,-5.45773605562578723,15.91220820960588433,32.93963798276008248,0.90564287105809260,-0.00342927496414881,0.00215561532626605,0.42402191393540101,-0.00111111111111111,0.03555555555555556,0.15666666666666668,0.64000000000000001,0.34999999999999998,10.72000000000000064,60.50000000000000000,-29.50000000000000000,11.68875926399999976
2.85003376007080078,-5.55997813809661068,16.23837395774427250,32.90480210720895116,0.90323140494272058,-0.00308697474095210,0.00215348122249796,0.42913734658122255,-0.28333333333333333,0.02777777777777778,0.85111111111111115,-1.61000000000000010,2.47000000000000020,10.14000000000000057,60.50000000000000000,-29.50000000000000000,11.67887865600000019
2.86004662513732910,-5.46525967811806357,16.78624416801786268,32.91883114560128121,0.90044475451350980,-0.00290361989906777,0.00216725301496154,0.43495530353699086,-0.28333333333333333,0.02777777777777778,0.85111111111111115,-1.61000000000000010,2.47000000000000020,10.14000000000000057,60.50000000000000000,-29.50000000000000000,11.67887865600000019
2.87004733085632324,-5.24987445918353046,17.14983594143355461,32.67704692040472736,0.89703367471020501,-0.00304754534590126,0.00246041371410820,0.44194484414644625,-0.28333333333333333,0.02777777777777778,0.85111111111111115,-1.61000000000000010,2.47000000000000020,10.14000000000000057,60.50000000000000000,-29.50000000000000000,11.67887865600000019
2.88007402420043945,-5.01342013014143628,17.88070973384759910,32.52731605391471703,0.89381949527428928,-0.00322802454846904,0.00240519706213977,0.44840885891362753,-0.28333333333333333,0.02777777777777778,0.85111111111111115,-1.61000000000000010,2.47000000000000020,10.14000000000000057,60.50000000000000000,-29.50000000000000000,11.67887865600000019
2.89004445075988770,-4.81207283945098663,18.82042164132948159,32.33265924880249287,0.88990167384021057,-0.00319974302814358,0.00281895921645758,0.45613246541972946,-0.28333333333333333,0.02777777777777778,0.85111111111111115,-1.61000000000000010,2.47000000000000020,10.14000000000000057,60.50000000000000000,-29.50000000000000000,11.67887865600000019
2.90002942085266113,-4.77711847895303254,19.55982940368321366,32.27378219114879698,0.88644365989335505,-0.00354854218171018,0.00360790143393051,0.46280884685850776,-0.01333333333333333,0.21333333333333335,1.36444444444444435,-0.12000000000000000,1.14999999999999991,9.43999999999999950,53.70000000000000284,-36.29999999999999716,11.70522694399999963
2.91002917289733887,-4.33739485924567703,20.75186971115241263,32.20521371181687442,0.88255347570318921,-0.00343243013738758,0.00336854898640009,0.47018744541437751,-0.01333333333333333,0.21333333333333335,1.36444444444444435,-0.12000000000000000,1.14999999999999991,9.43999999999999950,53.70000000000000284,-36.29999999999999716,11.70522694399999963
2.92004251480102539,-3.84959130060414134,21.87969567657543735,32.15008394130026659,0.87846953180900100,-0.00333758872131478,0.00331720530694422,0.47777519644049432,-0.01333333333333333,0.21333333333333335,1.36444444444444435,-0.12000000000000000,1.14999999999999991,9.43999999999999950,53.70000000000000284,-36.29999999999999716,11.70522694399999963
2.93003892898559570,-3.23096844152539608,22.69401798468773634,32.15350389570161127,0.87506224987081793,-0.00338690709660210,0.00307263714631533,0.48398878769276049,-0.01333333333333333,0.21333333333333335,1.36444444444444435,-0.12000000000000000,1.14999999999999991,9.43999999999999950,53.70000000000000284,-36.29999999999999716,11.70522694399999963
2.94003891944885254,-2.60159488524546134,23.65079724104766612,32.02784401950372484,0.87098520174719130,-0.00340943238712740,0.00326432172488365,0.49128657452843005,-0.01333333333333333,0.21333333333333335,1.36444444444444435,-0.12000000000000000,1.14999999999999991,9.43999999999999950,53.70000000000000284,-36.29999999999999716,11.70522694399999963
2.95003628730773926,-2.36384426983429341,24.54340684513086401,32.23037029141050169,0.86727612405621191,-0.00337707788081115,0.00292869268291047,0.49780733496623969,-0.05888888888888889,0.06111111111111111,1.72555555555555551,-0.67000000000000004,1.83000000000000007,9.17999999999999972,51.50000000000000000,-38.50000000000000000,11.71840108800000024
2.96003270149230957,-2.02707860794066619,25.66001646694749638,32.23916055671009673,0.86303858203105532,-0.00318057091075266,0.00262715905659425,0.50512116163332377,-0.05888888888888889,0.06111111111111111,1.72555555555555551,-0.67000000000000004,1.83000000000000007,9.17999999999999972,51.50000000000000000,-38.50000000000000000,11.71840108800000024
2.97006487846374512,-1.83446852945709327,26.60074739897408946,32.24475929744729541,0.85901789054380040,-0.00313366109815764,0.00258070327407938,0.51192947157241542,-0.05888888888888889,0.06111111111111111,1.72555555555555551,-0.67000000000000004,1.83000000000000007,9.17999999999999972,51.50000000000000000,-38.50000000000000000,11.71840108800000024
2.98008322715759277,-1.65028826648334825,27.34964936287974524,32.29161216932939737,0.85452331698205453,-0.00323740877549882,0.00214345912551002,0.51939852281401899,-0.05888888888888889,0.06111111111111111,1.72555555555555551,-0.67000000000000004,1.83000000000000007,9.17999999999999972,51.50000000000000000,-38.50000000000000000,11.71840108800000024
2.99004840850830078,-1.38211249452171603,28.21326089570973750,32.39367556306896034,0.84984159162170747,-0.00333715671149020,0.00199255311002927,0.52702387257795968,-0.05888888888888889,0.06111111111111111,1.72555555555555551,-0.67000000000000004,1.83000000000000007,9.17999999999999972,51.50000000000000000,-38.50000000000000000,11.71840108800000024
3.00003218650817871,-1.53545205904750515,28.88663072056624515,32.35437824076925040,0.84564469777356310,-0.00321638492611501,0.00219095537965091,0.53373204860678025,-0.02555555555555556,-0.03777777777777778,1.71333333333333337,-2.00000000000000000,1.76000000000000001,9.93999999999999950,51.50000000000000000,-38.50000000000000000,11.72828169599999981
3.01003074645996094,-1.42023803013969041,29.62864343595640193,32.27157276481235471,0.84090166311808678,-0.00273750727886650,0.00219215281298518,0.54117658253584700,-0.02555555555555556,-0.03777777777777778,1.71333333333333337,-2.00000000000000000,1.76000000000000001,9.93999999999999950,51.50000000000000000,-38.50000000000000000,11.72828169599999981
3.02006149291992188,-1.47805066336535162,30.20653213267620174,32.33389109922030258,0.83679358647945501,-0.00279323698888680,0.00242609431466896,0.54750598674384465,-0.02555555555555556,-0.03777777777777778,1.71333333333333337,-2.00000000000000000,1.76000000000000001,9.93999999999999950,51.50000000000000000,-38.50000000000000000,11.72828169599999981
3.03008246421813965,-1.44436513364900065,30.66438443699718519,32.37938794160380240,0.83224147314061170,-0.00318618858257230,0.00207446706641219,0.55440028424726762,-0.02555555555555556,-0.03777777777777778,1.71333333333333337,-2.00000000000000000,1.76000000000000001,9.93999999999999950,51.50000000000000000,-38.50000000000000000,11.72828169599999981
3.04008698463439941,-1.32930520271393493,31.25819479940179590,32.33506967722304637,0.82785669761444447,-0.00292188731387887,0.00215527200500505,0.56092789696360734,-0.02555555555555556,-0.03777777777777778,1.71333333333333337,-2.00000000000000000,1.76000000000000001,9.93999999999999950,51.50000000000000000,-38.50000000000000000,11.72828169599999981
3.05008840560913086,-1.28736315089127129,31.67075352368256702,32.33411076492114233,0.82355956760333748,-0.00280925435884307,0.00209385498213477,0.56721897224111317,-0.01888888888888889,-0.02000000000000000,1.75444444444444447,-2.45000000000000018,1.94999999999999996,10.15000000000000036,50.79999999999999716,-39.20000000000000284,11.69863987200000111
3.06011605262756348,-1.23785640662522667,32.08793435321920384,32.41846864716965371,0.81882090873374402,-0.00286203762660322,0.00165054451204782,0.57403954904159971,-0.01888888888888889,-0.02000000000000000,1.75444444444444447,-2.45000000000000018,1.94999999999999996,10.15000000000000036,50.79999999999999716,-39.20000000000000284,11.69863987200000111
3.07022976875305176,-1.30578004558248995,32.46121971032305709,32.46518421515558117,0.81391404520299304,-0.00290621800763023,0.00172577334299581,0.58097547506289871,-0.01888888888888889,-0.02000000000000000,1.75444444444444447,-2.45000000000000018,1.94999999999999996,10.15000000000000036,50.79999999999999716,-39.20000000000000284,11.69863987200000111
3.08008766174316406,-1.34138750559249331,32.98363473188275918,32.23161011815339805,0.80934767992139012,-0.00265037208990036,0.00217378051174755,0.58731983042626412,-0.01888888888888889,-0.02000000000000000,1.75444444444444447,-2.45000000000000018,1.94999999999999996,10.15000000000000036,50.79999999999999716,-39.20000000000000284,11.69863987200000111
3.09005379676818848,-1.32290820174026180,33.66265160251774091,32.24899909595621494,0.80411819957250219,-0.00244554665200378,0.00209249484959125,0.59446073199426286,-0.01888888888888889,-0.02000000000000000,1.75444444444444447,-2.45000000000000018,1.94999999999999996,10.15000000000000036,50.79999999999999716,-39.20000000000000284,11.69863987200000111
3.10003328323364258,-1.60758799803244767,34.00210582190548081,32.20049831589172840,0.79948960202220998,-0.00288407514540780,0.00227153707113985,0.60066870942996353,-0.01888888888888889,-0.02000000000000000,1.75444444444444447,-2.45000000000000018,1.94999999999999996,10.15000000000000036,50.79999999999999716,-39.20000000000000284,11.69863987200000111
3.11003851890563965,-1.79161257608784541,34.68554055763695487,32.10790388814100282,0.79428133739893247,-0.00286140883767085,0.00235470935256652,0.60753882570835871,-0.03777777777777778,-0.04000000000000000,1.64444444444444438,-0.20000000000000001,1.59000000000000008,8.39000000000000057,45.50000000000000000,-44.50000000000000000,11.71181401599999994
3.12003183364868164,-1.90310587910416018,35.25074530885382984,32.05045048026601506,0.78897440459325630,-0.00299546070853518,0.00264212490013313,0.61441308196348876,-0.03777777777777778,-0.04000000000000000,1.64444444444444438,-0.20000000000000001,1.59000000000000008,8.39000000000000057,45.50000000000000000,-44.50000000000000000,11.71181401599999994
3.13007211685180664,-1.89243813280272621,35.87185862974053663,32.00623639481801064,0.78426345073004722,-0.00300683261618263,0.00230315560815416,0.62041638782422692,-0.03777777777777778,-0.04000000000000000,1.64444444444444438,-0.20000000000000001,1.59000000000000008,8.39000000000000057,45.50000000000000000,-44.50000000000000000,11.71181401599999994
3.14009404182434082,-1.93589699774781576,36.18934321099906981,32.00803158133290083,0.77882135625728921,-0.00340214257448192,0.00286500740321346,0.62723003132506283,-0.03777777777777778,-0.04000000000000000,1.64444444444444438,-0.20000000000000001,1.59000000000000008,8.39000000000000057,45.50000000000000000,-44.50000000000000000,11.71181401599999994
3.15008997917175293,-2.20954367933671847,36.49068793674992861,32.01399835088346180,0.77380849813228436,-0.00345622204138749,0.00335371390665980,0.63340130671675388,-0.04000000000000000,0.04666666666666667,1.69333333333333336,-0.55000000000000004,1.88999999999999990,10.96000000000000085,45.00000000000000000,-45.00000000000000000,11.70852048000000067
3.16012763977050781,-2.39711270317197966,36.89336485259757836,31.93173586210503245,0.76807164108019033,-0.00309512344861223,0.00323626806623632,0.64034826535895617,-0.04000000000000000,0.04666666666666667,1.69333333333333336,-0.55000000000000004,1.88999999999999990,10.96000000000000085,45.00000000000000000,-45.00000000000000000,11.70852048000000067
3.17014431953430176,-2.61151330700202555,37.09409757763211246,31.78894249577342990,0.76220911920346190,-0.00258871302912342,0.00371911860150105,0.64731501243580269,-0.04000000000000000,0.04666666666666667,1.69333333333333336,-0.55000000000000004,1.88999999999999990,10.96000000000000085,45.00000000000000000,-45.00000000000000000,11.70852048000000067
3.18008780479431152,-3.03484522327144290,37.06215900272680841,31.72195543220057345,0.75699696231322400,-0.00286947391494052,0.00476181533908622,0.65339474307854606,-0.04000000000000000,0.04666666666666667,1.69333333333333336,-0.55000000000000004,1.88999999999999990,10.96000000000000085,45.00000000000000000,-45.00000000000000000,11.70852048000000067
3.19008708000183105,-3.36978925593606382,37.06745228548067672,31.75085635655226568,0.75119364852244674,-0.00311782572038096,0.00520428686851411,0.66005401065405467,-0.04000000000000000,0.04666666666666667,1.69333333333333336,-0.55000000000000004,1.88999999999999990,10.96000000000000085,45.00000000000000000,-45.00000000000000000,11.70852048000000067
3.20007491111755371,-3.54696067018287531,37.31503246675254104,31.84013597921334338,0.74621105981210167,-0.00332807182763677,0.00503898603886185,0.66568204630417249,-0.03555555555555556,-0.05222222222222223,1.82555555555555560,-0.71999999999999997,2.22000000000000020,9.46000000000000085,45.00000000000000000,-45.00000000000000000,11.72169462400000128
3.21003270149230957,-3.61181141932510608,37.84331204934681381,31.84596251758216567,0.74056004293711952,-0.00321555065873384,0.00438968604724908,0.67196816419778338,-0.03555555555555556,-0.05222222222222223,1.82555555555555560,-0.71999999999999997,2.22000000000000020,9.46000000000000085,45.00000000000000000,-45.00000000000000000,11.72169462400000128
3.22003149986267090,-3.55797954981427500,38.18875541068381807,31.84603213068158212,0.73489892011469926,-0.00302251406910982,0.00375951287676039,0.67815950018110105,-0.03555555555555556,-0.05222222222222223,1.82555555555555560,-0.71999999999999997,2.22000000000000020,9.46000000000000085,45.00000000000000000,-45.00000000000000000,11.72169462400000128
3.23003625869750977,-3.76385802297816019,38.25184513941046305,31.69899835577038871,0.72959005860652815,-0.00309673873480832,0.00412674902855491,0.68386528390771983,-0.03555555555555556,-0.05222222222222223,1.82555555555555560,-0.71999999999999997,2.22000000000000020,9.46000000000000085,45.00000000000000000,-45.00000000000000000,11.72169462400000128
3.24006748199462891,-3.93179052064829415,38.27817495715529361,31.68196211096870840,0.72379620940250067,-0.00320866988834892,0.00420987599334686,0.68999349898114182,-0.03555555555555556,-0.05222222222222223,1.82555555555555560,-0.71999999999999997,2.22000000000000020,9.46000000000000085,45.00000000000000000,-45.00000000000000000,11.72169462400000128
3.25013113021850586,-4.25808949253526858,38.31148547872807342,31.78855952051131695,0.71849410216146270,-0.00276813266901075,0.00480168293454376,0.69551096788024591,-0.07666666666666666,0.04777777777777778,1.42888888888888888,-1.08000000000000007,0.58999999999999997,11.19999999999999929,45.00000000000000000,-45.00000000000000000,11.75133644799999999
3.26008296012878418,-4.37149833459409720,38.18463133528442199,31.99873177859959483,0.71235818897900416,-0.00304374930470766,0.00494326107695314,0.70179207059829940,-0.07666666666666666,0.04777777777777778,1.42888888888888888,-1.08000000000000007,0.58999999999999997,11.19999999999999929,45.00000000000000000,-45.00000000000000000,11.75133644799999999
3.27003288269042969,-4.77869462100438991,38.27530530678955500,31.94097701013556900,0.70638661173036343,-0.00228199762228717,0.00566610788295088,0.70779986046650756,-0.07666666666666666,0.04777777777777778,1.42888888888888888,-1.08000000000000007,0.58999999999999997,11.19999999999999929,45.00000000000000000,-45.00000000000000000,11.75133644799999999
3.28006935119628906,-5.10334319035134598,38.25355136862969374,31.80197818504972318,0.70133668136772476,-0.00211279663729638,0.00587190845621881,0.71280285924619990,-0.07666666666666666,0.04777777777777778,1.42888888888888888,-1.08000000000000007,0.58999999999999997,11.19999999999999929,45.00000000000000000,-45.00000000000000000,11.75133644799999999
3.29009437561035156,-5.19903315391247123,38.25847191231526523,31.79814753259161719,0.69532512139426439,-0.00210617562669647,0.00551214872507223,0.71867110405157775,-0.07666666666666666,0.04777777777777778,1.42888888888888888,-1.08000000000000007,0.58999999999999997,11.19999999999999929,45.00000000000000000,-45.00000000000000000,11.75133644799999999
3.30012512207031250,-5.23416499174644656,38.21618178297154600,31.76857809090197193,0.69008638078482643,-0.00268188845715787,0.00473175692166347,0.72370657383088388,-0.05111111111111111,-0.03888888888888889,1.68999999999999995,0.32000000000000001,1.70999999999999996,8.34999999999999964,45.00000000000000000,-45.00000000000000000,11.70193340800000037
3.31010222434997559,-5.37206663604015500,38.27773884499910650,31.78572168655540153,0.68409792300378636,-0.00291515573946409,0.00388856276051682,0.72937398684665034,-0.05111111111111111,-0.03888888888888889,1.68999999999999995,0.32000000000000001,1.70999999999999996,8.34999999999999964,45.00000000000000000,-45.00000000000000000,11.70193340800000037
3.32020378112792969,-5.47092886007620915,38.21908925383657873,31.69644355221909748,0.67810366300707525,-0.00334142556887937,0.00344406720487128,0.73495060751906549,-0.05111111111111111,-0.03888888888888889,1.68999999999999995,0.32000000000000001,1.70999999999999996,8.34999999999999964,45.00000000000000000,-45.00000000000000000,11.70193340800000037
3.33008813858032227,-5.53274278155418386,38.17800653345133099,31.76518016313494641,0.67260826110548266,-0.00354719965092025,0.00296522922740784,0.73998429164606194,-0.05111111111111111,-0.03888888888888889,1.68999999999999995,0.32000000000000001,1.70999999999999996,8.34999999999999964,45.00000000000000000,-45.00000000000000000,11.70193340800000037
3.34009313583374023,-5.67670079460816623,38.19970252774754726,31.76698276266688836,0.66646272019432329,-0.00330238053212457,0.00313303479942804,0.74552446034114117,-0.05111111111111111,-0.03888888888888889,1.68999999999999995,0.32000000000000001,1.70999999999999996,8.34999999999999964,45.00000000000000000,-45.00000000000000000,11.70193340800000037
3.35012412071228027,-6.25144192912605945,38.45881678704591877,31.80661081916931110,0.66062108425235311,-0.00204421270013015,0.00377470584526704,0.75070723709810072,-0.05333333333333334,-0.02777777777777778,1.66555555555555546,-1.12999999999999989,1.56000000000000005,11.09999999999999964,45.00000000000000000,-45.00000000000000000,11.71181401599999994
3.36010789871215820,-6.58187503649054850,38.69116122510693145,31.90289541986687993,0.65410155455505381,-0.00164792984549067,0.00402740371257730,0.75639422305780624,-0.05333333333333334,-0.02777777777777778,1.66555555555555546,-1.12999999999999989,1.56000000000000005,11.09999999999999964,45.00000000000000000,-45.00000000000000000,11.71181401599999994
3.37011408805847168,-6.72144349405830610,38.80421276517520823,31.89706258499325386,0.64835289635318027,-0.00180866038012492,0.00362450050572098,0.76132917554376922,-0.05333333333333334,-0.02777777777777778,1.66555555555555546,-1.12999999999999989,1.56000000000000005,11.09999999999999964,45.00000000000000000,-45.00000000000000000,11.71181401599999994
3.38009047508239746,-6.96643380390852940,38.73015556368459755,31.84534888913109896,0.64177911378189612,-0.00185626038441708,0.00363088644185184,0.76687869971355649,-0.05333333333333334,-0.02777777777777778,1.66555555555555546,-1.12999999999999989,1.56000000000000005,11.09999999999999964,45.00000000000000000,-45.00000000000000000,11.71181401599999994
3.39005112648010254,-7.06411035303027290,38.72972785967262865,31.82640305911225553,0.63555704594087759,-0.00215669532069026,0.00321518627721379,0.77204420378460314,-0.05333333333333334,-0.02777777777777778,1.66555555555555546,-1.12999999999999989,1.56000000000000005,11.09999999999999964,45.00000000000000000,-45.00000000000000000,11.71181401599999994
3.40003275871276855,-7.30512495753549285,38.63749774417519944,31.59640017425869374,0.62964846859162327,-0.00256365514271366,0.00325766328200473,0.77686911465347497,0.01000000000000000,-0.00111111111111111,1.72111111111111104,-1.43999999999999995,2.39000000000000012,9.74000000000000021,45.00000000000000000,-45.00000000000000000,11.68875926399999976
3.41005373001098633,-7.31110180069433113,38.72760498615335223,31.53641565763033228,0.62323479368698154,-0.00275945313395643,0.00285752320191287,0.78202468753709931,0.01000000000000000,-0.00111111111111111,1.72111111111111104,-1.43999999999999995,2.39000000000000012,9.74000000000000021,45.00000000000000000,-45.00000000000000000,11.68875926399999976
3.42003798484802246,-7.46496336807033334,38.68351069524777586,31.40317924173101005,0.61653489079336010,-0.00289968702717752,0.00272638956974502,0.78731752619224615,0.01000000000000000,-0.00111111111111111,1.72111111111111104,-1.43999999999999995,2.39000000000000012,9.74000000000000021,45.00000000000000000,-45.00000000000000000,11.68875926399999976
