t,x,y,z,q0,q1,q2,q3,wx,wy,wz,ax,ay,az,dutyR,dutyL,Vbatt
0.00000000000000000,36.38932394507935442,-2.34074873913138148,31.67512145348095487,0.10438609749014452,-0.64908081232952131,0.60209034785033722,0.45308371714496731,0.00000000000000000,0.00000000000000000,0.00000000000000000,0.00000000000000000,0.00000000000000000,0.00000000000000000,0.00000000000000000,0.00000000000000000,0.00000000000000000
0.01006150245666504,36.38932394507935442,-2.34074873913138148,31.67512145348095487,0.69234412391661992,-0.00339932555936108,0.00490923633698862,0.72154276246280613,0.00000000000000000,0.00000000000000000,0.00000000000000000,0.00000000000000000,0.00000000000000000,0.00000000000000000,0.00000000000000000,0.00000000000000000,0.00000000000000000
0.02004599571228027,36.37354161824765697,-2.39014045599693148,31.67031060989745939,0.69229807725878745,-0.00346203424301663,0.00502069516924580,0.72158587788474948,0.00000000000000000,0.00000000000000000,0.00000000000000000,0.00000000000000000,0.00000000000000000,0.00000000000000000,0.00000000000000000,0.00000000000000000,0.00000000000000000
0.03003501892089844,36.31108213081316904,-2.40135722650851102,31.65614888553275819,0.69227861465803553,-0.00342763914491309,0.00513543944994673,0.72160390675127273,0.00000000000000000,0.00000000000000000,0.00000000000000000,0.00000000000000000,0.00000000000000000,0.00000000000000000,0.00000000000000000,0.00000000000000000,0.00000000000000000
0.04015970230102539,36.36414598622792482,-2.36805137916456099,31.69738269202997571,0.69229309175711651,-0.00345324514029652,0.00497397457284986,0.72159102667669206,0.00000000000000000,0.00000000000000000,0.00000000000000000,0.00000000000000000,0.00000000000000000,0.00000000000000000,0.00000000000000000,0.00000000000000000,0.00000000000000000
0.05006003379821777,36.31627392116568132,-2.37502742190398664,31.68543983786906892,0.69228321971409867,-0.00341971522365784,0.00505676988053326,0.72160008199032644,0.00000000000000000,0.00000000000000000,0.00000000000000000,0.00000000000000000,0.00000000000000000,0.00000000000000000,0.00000000000000000,0.00000000000000000,0.00000000000000000
0.06003761291503906,36.36865972922836932,-2.39135657687566328,31.69409323045004712,0.69231180394869529,-0.00349652582706377,0.00496252294450645,0.72157294418961448,0.00000000000000000,0.00000000000000000,0.00000000000000000,0.00000000000000000,0.00000000000000000,0.00000000000000000,0.00000000000000000,0.00000000000000000,0.00000000000000000
0.07004237174987793,36.36040395633421696,-2.35750724217550323,31.66222017428428259,0.69234063821066927,-0.00343856914980104,0.00502172220160666,0.72154514704928530,0.00000000000000000,0.00000000000000000,0.00000000000000000,0.00000000000000000,0.00000000000000000,0.00000000000000000,0.00000000000000000,0.00000000000000000,0.00000000000000000
0.08000922203063965,36.32516133813953019,-2.37045368906798970,31.67619558511889011,0.69229515643053152,-0.00334032212400399,0.00510270764897445,0.72158867854587561,0.00000000000000000,-0.00111111111111111,-0.00000000000000000,-0.17999999999999999,1.85000000000000009,9.68999999999999950,0.00000000000000000,0.00000000000000000,11.67229158399999989
0.09003543853759766,36.30467908157029200,-2.33131397907176208,31.66870747291526911,0.69235808985318692,-0.00336218471311431,0.00495727169503218,0.72152920702223999,0.00000000000000000,-0.00111111111111111,-0.00000000000000000,-0.17999999999999999,1.85000000000000009,9.68999999999999950,0.00000000000000000,0.00000000000000000,11.67229158399999989
0.10004854202270508,36.31057456150549712,-2.36468120708549279,31.66226352735662530,0.69232988655306982,-0.00335886385249295,0.00508333086094564,0.72155540741262014,0.00000000000000000,-0.00111111111111111,-0.00000000000000000,-0.17999999999999999,1.85000000000000009,9.68999999999999950,0.00000000000000000,0.00000000000000000,11.67229158399999989
0.11005330085754395,36.36811398086955904,-2.37372936394178202,31.64194273414880243,0.69232352282483267,-0.00349974569823126,0.00501208896956074,0.72156134215160261,0.00000000000000000,-0.00111111111111111,-0.00000000000000000,-0.17999999999999999,1.85000000000000009,9.68999999999999950,0.00000000000000000,0.00000000000000000,11.67229158399999989
0.12000083923339844,36.37905639652466760,-2.35596974178101215,31.66105957915573299,0.69230562627005121,-0.00350204457483803,0.00490086018791047,0.72157926597709698,0.00000000000000000,-0.00111111111111111,-0.00000000000000000,-0.17999999999999999,1.85000000000000009,9.68999999999999950,0.00000000000000000,0.00000000000000000,11.67229158399999989
0.13002729415893555,36.27156740575926364,-2.37423098533355770,31.66425114390711926,0.69230493773009338,-0.00332854933348329,0.00511757308883510,0.72157924332643220,0.00000000000000000,-0.00222222222222222,-0.00000000000000000,-0.19000000000000000,1.85000000000000009,9.72000000000000064,0.00000000000000000,0.00000000000000000,11.66899804800000062
0.14002633094787598,36.34737903034901763,-2.38771251892404246,31.73956606699114857,0.69229410137187486,-0.00343843343771960,0.00497592193851262,0.72159011535778717,0.00000000000000000,-0.00222222222222222,-0.00000000000000000,-0.19000000000000000,1.85000000000000009,9.72000000000000064,0.00000000000000000,0.00000000000000000,11.66899804800000062
0.15004920959472656,36.30212231587692173,-2.40609269802365366,31.57909310829357707,0.69232535852354715,-0.00332784745642089,0.00542332769860312,0.72155742037153359,0.00000000000000000,-0.00222222222222222,-0.00000000000000000,-0.19000000000000000,1.85000000000000009,9.72000000000000064,0.00000000000000000,0.00000000000000000,11.66899804800000062
0.16011238098144531,36.37105132254169604,-2.35826117900052656,31.67801015757713756,0.69229096976133497,-0.00355769617421855,0.00490305401255676,0.72159304046407768,0.00000000000000000,-0.00222222222222222,-0.00000000000000000,-0.19000000000000000,1.85000000000000009,9.72000000000000064,0.00000000000000000,0.00000000000000000,11.66899804800000062
0.17013120651245117,36.40760706346828357,-2.38599573930718378,31.71857028545731794,0.69228337698064080,-0.00358194378518625,0.00489144444078440,0.72160028367946372,0.00000000000000000,-0.00222222222222222,-0.00000000000000000,-0.19000000000000000,1.85000000000000009,9.72000000000000064,0.00000000000000000,0.00000000000000000,11.66899804800000062
0.18009376525878906,36.29553113649060236,-2.37002689940261169,31.68755727352201745,0.69227670524296525,-0.00336225463271578,0.00504586703505796,0.72160667807857337,0.00000000000000000,-0.00222222222222222,-0.00000000000000000,-0.19000000000000000,1.85000000000000009,9.72000000000000064,0.00000000000000000,0.00000000000000000,11.66899804800000062
0.19013547897338867,36.33689702705982683,-2.37901324337807685,31.67598883171529067,0.69232550895202893,-0.00339005867924435,0.00515508922331719,0.72155895269310122,-0.00222222222222222,-0.00222222222222222,0.00111111111111111,-0.17999999999999999,1.84000000000000008,9.67999999999999972,0.00000000000000000,0.00000000000000000,11.67558512000000093
0.20003294944763184,36.30454126976837870,-2.35974470277062176,31.64992273069823625,0.69227361341712845,-0.00327540250337509,0.00524704850656561,0.72160860886411482,-0.00222222222222222,-0.00222222222222222,0.00111111111111111,-0.17999999999999999,1.84000000000000008,9.67999999999999972,0.00000000000000000,0.00000000000000000,11.67558512000000093
0.21008563041687012,36.33451830783776160,-2.36297477621945617,31.64367641422751376,0.69232682546759150,-0.00341200419820671,0.00502436630887891,0.72155850816722622,-0.00222222222222222,-0.00222222222222222,0.00111111111111111,-0.17999999999999999,1.84000000000000008,9.67999999999999972,0.00000000000000000,0.00000000000000000,11.67558512000000093
0.22004151344299316,36.30107774307941071,-2.40296177408315614,31.60954967032126817,0.69230188083005595,-0.00337199448861869,0.00526751770149185,0.72158089547160298,-0.00222222222222222,-0.00222222222222222,0.00111111111111111,-0.17999999999999999,1.84000000000000008,9.67999999999999972,0.00000000000000000,0.00000000000000000,11.67558512000000093
0.23005867004394531,36.30830119787248833,-2.40103257081592369,31.66365059397795889,0.69232759897018636,-0.00335721991200020,0.00515896815402543,0.72155707315930673,-0.00222222222222222,-0.00000000000000000,-0.00111111111111111,-0.17999999999999999,1.82000000000000006,9.68999999999999950,0.00000000000000000,0.00000000000000000,11.68217219200000123
0.24003076553344727,36.36983807837277283,-2.34938553066637823,31.71982734531500725,0.69236857613735270,-0.00344379290723397,0.00489059281111454,0.72151921469209834,-0.00222222222222222,-0.00000000000000000,-0.00111111111111111,-0.17999999999999999,1.82000000000000006,9.68999999999999950,0.00000000000000000,0.00000000000000000,11.68217219200000123
0.25010848045349121,36.34814305235412490,-2.35680527627462766,31.66862758654820809,0.69229945164139062,-0.00335790815338276,0.00514571594811086,0.72158417063932601,-0.00222222222222222,-0.00000000000000000,-0.00111111111111111,-0.17999999999999999,1.82000000000000006,9.68999999999999950,0.00000000000000000,0.00000000000000000,11.68217219200000123
0.26033639907836914,36.39150943390188075,-2.36606708145132805,31.63938382886808753,0.69233690990847185,-0.00345639589889978,0.00506999244112476,0.72154830169741613,-0.00222222222222222,-0.00000000000000000,-0.00111111111111111,-0.17999999999999999,1.82000000000000006,9.68999999999999950,0.00000000000000000,0.00000000000000000,11.68217219200000123
0.27014827728271484,36.42980722261429349,-2.36824920230850822,31.61891099197869082,0.69246217218516204,-0.00339607413171191,0.00510919231386388,0.72142809962393273,-0.00222222222222222,-0.00000000000000000,-0.00111111111111111,-0.17999999999999999,1.82000000000000006,9.68999999999999950,0.00000000000000000,0.00000000000000000,11.68217219200000123
0.28010416030883789,36.34245567475471006,-2.39295413267619983,31.64951533579579390,0.69230443684190979,-0.00339200416383162,0.00519589582968766,0.72157886866460097,0.00111111111111111,-0.00333333333333333,-0.00111111111111111,-0.17000000000000001,1.83000000000000007,9.63000000000000078,0.00000000000000000,0.00000000000000000,11.68217219200000123
0.29013943672180176,36.34086781914410835,-2.35188923171280129,31.67077071275913980,0.69229755526704573,-0.00339593161787074,0.00510335389789791,0.72158611294752095,0.00111111111111111,-0.00333333333333333,-0.00111111111111111,-0.17000000000000001,1.83000000000000007,9.63000000000000078,0.00000000000000000,0.00000000000000000,11.68217219200000123
0.30013322830200195,36.38836951803434516,-2.37297672725275666,31.75196220264009028,0.69229825424117075,-0.00359495007351547,0.00467749986083820,0.72158736442903981,0.00111111111111111,-0.00333333333333333,-0.00111111111111111,-0.17000000000000001,1.83000000000000007,9.63000000000000078,0.00000000000000000,0.00000000000000000,11.68217219200000123
0.31017494201660156,36.32941300037077070,-2.37477482040228205,31.61203035582729726,0.69228555686364024,-0.00337568221279747,0.00521952124669553,0.72159688824547552,0.00111111111111111,-0.00333333333333333,-0.00111111111111111,-0.17000000000000001,1.83000000000000007,9.63000000000000078,0.00000000000000000,0.00000000000000000,11.68217219200000123
0.31999850273132324,36.28468298217160992,-2.34450026263590772,31.63748525963307046,0.69234939210176338,-0.00330956927045590,0.00514524520325279,0.72153648033856266,0.00111111111111111,-0.00333333333333333,-0.00111111111111111,-0.17000000000000001,1.83000000000000007,9.63000000000000078,0.00000000000000000,0.00000000000000000,11.68217219200000123
0.33006882667541504,36.29466759393297082,-2.38576384722110424,31.63191128168951494,0.69236985743333646,-0.00334167134262823,0.00522750594745132,0.72151610303024316,0.00111111111111111,-0.00333333333333333,-0.00111111111111111,-0.17000000000000001,1.83000000000000007,9.63000000000000078,0.00000000000000000,0.00000000000000000,11.68217219200000123
0.34009242057800293,36.33957743123507100,-2.34605991904289590,31.63867494752734544,0.69235554268257971,-0.00340326800860075,0.00509327050853186,0.72153051139858215,0.00000000000000000,-0.00000000000000000,-0.00111111111111111,-0.17999999999999999,1.83000000000000007,9.66999999999999993,0.00000000000000000,0.00000000000000000,11.67887865600000019
0.35014486312866211,36.28630448510650552,-2.35408866471572287,31.64646112828819469,0.69230271233694507,-0.00325420657258246,0.00520232383126374,0.72158111148868587,0.00000000000000000,-0.00000000000000000,-0.00111111111111111,-0.17999999999999999,1.83000000000000007,9.66999999999999993,0.00000000000000000,0.00000000000000000,11.67887865600000019
0.36013579368591309,36.34057569573744928,-2.33804314450066153,31.63487510928169044,0.69236368347421340,-0.00331083880645358,0.00514069497765472,0.72152279340819414,0.00000000000000000,-0.00000000000000000,-0.00111111111111111,-0.17999999999999999,1.83000000000000007,9.66999999999999993,0.00000000000000000,0.00000000000000000,11.67887865600000019
0.37009000778198242,36.37836051151722216,-2.37342778349137262,31.67437454424857535,0.69236816151204805,-0.00352678967398472,0.00494129743346398,0.72151886618348104,0.00000000000000000,-0.00000000000000000,-0.00111111111111111,-0.17999999999999999,1.83000000000000007,9.66999999999999993,0.00000000000000000,0.00000000000000000,11.67887865600000019
0.38023233413696289,36.33465046172172919,-2.35975137014094338,31.60895085494233570,0.69228566420288662,-0.00336806495324682,0.00517087432416534,0.72159717109781019,0.00000000000000000,-0.00000000000000000,-0.00111111111111111,-0.17999999999999999,1.83000000000000007,9.66999999999999993,0.00000000000000000,0.00000000000000000,11.67887865600000019
0.39019918441772461,36.34313543763538235,-2.40222970402275271,31.61443167066768467,0.69230771853408202,-0.00345992525495484,0.00523940539529937,0.72157508300000761,-0.00333333333333333,0.00333333333333333,-0.00111111111111111,-0.19000000000000000,1.84000000000000008,9.66999999999999993,0.00000000000000000,0.00000000000000000,11.67887865600000019
0.40014147758483887,36.31234912367958856,-2.35153392105845560,31.60420479047403219,0.69234257718519565,-0.00339534584015307,0.00511917278964130,0.72154280643156388,-0.00333333333333333,0.00333333333333333,-0.00111111111111111,-0.19000000000000000,1.84000000000000008,9.66999999999999993,0.00000000000000000,0.00000000000000000,11.67887865600000019
0.41014361381530762,36.31829282611705167,-2.40031222499992447,31.62142635721476935,0.69231011393519593,-0.00337733959237369,0.00520748000922502,0.72157340712658413,-0.00333333333333333,0.00333333333333333,-0.00111111111111111,-0.19000000000000000,1.84000000000000008,9.66999999999999993,0.00000000000000000,0.00000000000000000,11.67887865600000019
0.42009139060974121,36.34251143646003612,-2.38316481447008854,31.58014455969768264,0.69238926023599479,-0.00335270206533159,0.00532121697573745,0.72149674728900237,0.00000000000000000,-0.00000000000000000,-0.00000000000000000,-0.17000000000000001,1.85000000000000009,9.68999999999999950,0.00000000000000000,0.00000000000000000,11.68546572800000050
0.43008542060852051,36.35947443143518143,-2.37378547339141255,31.64340642764406653,0.69239360631425406,-0.00338440451996741,0.00512296977542178,0.72149386339862043,0.00000000000000000,-0.00000000000000000,-0.00000000000000000,-0.17000000000000001,1.85000000000000009,9.68999999999999950,0.00000000000000000,0.00000000000000000,11.68546572800000050
0.44013833999633789,36.30501035166270896,-2.35714435614738926,31.63965232067477373,0.69232547779624454,-0.00333891230514568,0.00519982786323321,0.72155890005529899,0.00000000000000000,-0.00000000000000000,-0.00000000000000000,-0.17000000000000001,1.85000000000000009,9.68999999999999950,0.00000000000000000,0.00000000000000000,11.68546572800000050
0.45012497901916504,36.34829151763091915,-2.36044756087832530,31.63394969899191622,0.69229950679595387,-0.00338079134494943,0.00515437980844680,0.72158394903763734,0.00000000000000000,-0.00000000000000000,-0.00000000000000000,-0.17000000000000001,1.85000000000000009,9.68999999999999950,0.00000000000000000,0.00000000000000000,11.68546572800000050
0.46014428138732910,36.36699360020629257,-2.38162069609567206,31.61784847845241586,0.69234016498492534,-0.00334927530675611,0.00523379065442097,0.72154451403842790,0.00000000000000000,-0.00000000000000000,-0.00000000000000000,-0.17000000000000001,1.85000000000000009,9.68999999999999950,0.00000000000000000,0.00000000000000000,11.68546572800000050
0.47013354301452637,36.31827719978124236,-2.36052650127295882,31.61943175959426355,0.69237676192869479,-0.00329286387744662,0.00523050381147411,0.72150968005876304,0.00000000000000000,-0.00000000000000000,-0.00000000000000000,-0.17000000000000001,1.85000000000000009,9.68999999999999950,0.00000000000000000,0.00000000000000000,11.68546572800000050
0.48013257980346680,36.34028914304275304,-2.36199725488039425,31.61782470616572382,0.69228144070873476,-0.00335924781872643,0.00522514407752255,0.72160087317969579,0.00000000000000000,-0.00000000000000000,-0.00333333333333333,-0.19000000000000000,1.85000000000000009,9.69999999999999929,0.00000000000000000,0.00000000000000000,11.65582390400000001
0.49013471603393555,36.32500161659445581,-2.35994047810394170,31.63370785653723161,0.69235257916442350,-0.00328295946467547,0.00525611495427811,0.72153274461878159,0.00000000000000000,-0.00000000000000000,-0.00333333333333333,-0.19000000000000000,1.85000000000000009,9.69999999999999929,0.00000000000000000,0.00000000000000000,11.65582390400000001
0.50012302398681641,36.30082521354493252,-2.37596260231024559,31.63322223291790181,0.69235003045548527,-0.00327926569966905,0.00529727658354590,0.72153490602018511,0.00000000000000000,-0.00000000000000000,-0.00333333333333333,-0.19000000000000000,1.85000000000000009,9.69999999999999929,0.00000000000000000,0.00000000000000000,11.65582390400000001
0.51009011268615723,36.33275161375190265,-2.36096405120354547,31.60779433668713168,0.69240910196620920,-0.00332558950764547,0.00517095730353852,0.72147892357943455,0.00000000000000000,-0.00000000000000000,-0.00333333333333333,-0.19000000000000000,1.85000000000000009,9.69999999999999929,0.00000000000000000,0.00000000000000000,11.65582390400000001
0.52005410194396973,36.33605502240481400,-2.37326500327858492,31.54606545663730444,0.69235490752128959,-0.00327325875574220,0.00544566255142563,0.72152914879974228,0.00000000000000000,-0.00000000000000000,-0.00333333333333333,-0.19000000000000000,1.85000000000000009,9.69999999999999929,0.00000000000000000,0.00000000000000000,11.65582390400000001
0.53001523017883301,36.24969688169542792,-2.39992862741494895,31.63486323655657273,0.69232674658458637,-0.00326700074581651,0.00528747980588705,0.72155737486843752,0.00000000000000000,-0.00000000000000000,-0.00333333333333333,-0.19000000000000000,1.85000000000000009,9.69999999999999929,0.00000000000000000,0.00000000000000000,11.65582390400000001
0.54002356529235840,36.32243891944925451,-2.37604568597050303,31.61571464421270150,0.69232251089610797,-0.00332823691610481,0.00534408405333019,0.72156074208008958,-0.00111111111111111,-0.00000000000000000,-0.00000000000000000,-0.17999999999999999,1.82000000000000006,9.66999999999999993,0.00000000000000000,0.00000000000000000,11.66899804800000062
0.55004262924194336,36.32075199389160503,-2.39345764663958249,31.58705830064977249,0.69232644705889634,-0.00331534781839888,0.00538911922129155,0.72155668977958154,-0.00111111111111111,-0.00000000000000000,-0.00000000000000000,-0.17999999999999999,1.82000000000000006,9.66999999999999993,0.00000000000000000,0.00000000000000000,11.66899804800000062
0.56010532379150391,36.36095230826990843,-2.35579897740326416,31.62991218919477276,0.69234336228813920,-0.00338593859239612,0.00511745268927715,0.72154210950808395,-0.00111111111111111,-0.00000000000000000,-0.00000000000000000,-0.17999999999999999,1.82000000000000006,9.66999999999999993,0.00000000000000000,0.00000000000000000,11.66899804800000062
0.57000041007995605,36.32973655895656862,-2.36030963768830082,31.63701429066776072,0.69235199943658610,-0.00335977549161893,0.00512012325777314,0.72153392513632575,-0.00111111111111111,-0.00000000000000000,-0.00000000000000000,-0.17999999999999999,1.82000000000000006,9.66999999999999993,0.00000000000000000,0.00000000000000000,11.66899804800000062
0.58003211021423340,36.28995681624125780,-2.39764247348081261,31.64372245733105160,0.69231271693711605,-0.00333417222274796,0.00528392206365130,0.72157055471406473,-0.00111111111111111,-0.00000000000000000,-0.00000000000000000,-0.17999999999999999,1.82000000000000006,9.66999999999999993,0.00000000000000000,0.00000000000000000,11.66899804800000062
0.59003543853759766,36.32593615448899982,-2.33791490675127500,31.69282707411420219,0.69232353222578369,-0.00330241570932004,0.00513482953628914,0.72156140023045201,0.00111111111111111,0.00222222222222222,0.00111111111111111,-0.19000000000000000,1.82000000000000006,9.65000000000000036,0.00000000000000000,0.00000000000000000,11.68546572800000050
0.60004138946533203,36.27808463641784442,-2.34159145024879711,31.65698530077782280,0.69229588387957630,-0.00329823945943207,0.00510856635009151,0.72158813275282629,0.00111111111111111,0.00222222222222222,0.00111111111111111,-0.19000000000000000,1.82000000000000006,9.65000000000000036,0.00000000000000000,0.00000000000000000,11.68546572800000050
0.61007785797119141,36.35099086240916222,-2.39373707564321592,31.63254544547832481,0.69231625587527479,-0.00341813621617061,0.00513872830831616,0.72156781501604017,0.00111111111111111,0.00222222222222222,0.00111111111111111,-0.19000000000000000,1.82000000000000006,9.65000000000000036,0.00000000000000000,0.00000000000000000,11.68546572800000050
0.61999487876892090,36.37050080374233829,-2.38701928642993622,31.60677128342369713,0.69232037849383976,-0.00340101414651565,0.00525732340552096,0.72156308606769171,-0.00111111111111111,0.00222222222222222,-0.00222222222222222,-0.20999999999999999,1.83000000000000007,9.68999999999999950,0.00000000000000000,0.00000000000000000,11.67558512000000093
0.63001608848571777,36.32602038131116018,-2.37272783850506253,31.63441346589237568,0.69236400413205135,-0.00338032113250387,0.00516219702334525,0.72152201001297656,-0.00111111111111111,0.00222222222222222,-0.00222222222222222,-0.20999999999999999,1.83000000000000007,9.68999999999999950,0.00000000000000000,0.00000000000000000,11.67558512000000093
0.64001655578613281,36.34415104922042161,-2.38466889109802826,31.68211034333540610,0.69227874123980881,-0.00342841215776611,0.00507035160257520,0.72160424191666817,-0.00111111111111111,0.00222222222222222,-0.00222222222222222,-0.20999999999999999,1.83000000000000007,9.68999999999999950,0.00000000000000000,0.00000000000000000,11.67558512000000093
0.65003204345703125,36.34383815339531765,-2.38081765479064211,31.64139225628990104,0.69234844265831219,-0.00333627901713506,0.00524944901211042,0.72153651777023631,-0.00111111111111111,0.00222222222222222,-0.00222222222222222,-0.20999999999999999,1.83000000000000007,9.68999999999999950,0.00000000000000000,0.00000000000000000,11.67558512000000093
0.66014671325683594,36.36796680510180835,-2.35380207666496588,31.64174670856923299,0.69237028164054715,-0.00340192633300436,0.00505215450301804,0.72151666351726906,-0.00111111111111111,0.00222222222222222,-0.00222222222222222,-0.20999999999999999,1.83000000000000007,9.68999999999999950,0.00000000000000000,0.00000000000000000,11.67558512000000093
0.67003726959228516,36.39062355831450191,-2.37953872220165019,31.64293789456730011,0.69236108226562632,-0.00349496888421491,0.00498294565163033,0.72152552775983103,-0.00111111111111111,0.00222222222222222,-0.00222222222222222,-0.20999999999999999,1.83000000000000007,9.68999999999999950,0.00000000000000000,0.00000000000000000,11.67558512000000093
0.68017411231994629,36.29133631801904158,-2.40906762519947071,31.62593829853457450,0.69232476562358347,-0.00331525911467465,0.00533473351145274,0.72155870764589547,0.00000000000000000,0.00333333333333333,-0.00111111111111111,-0.17999999999999999,1.83000000000000007,9.71000000000000085,0.00000000000000000,0.00000000000000000,11.67558512000000093
0.69014334678649902,36.33630945567887238,-2.38289667427877205,31.64611548915764061,0.69233898751659317,-0.00331728733227440,0.00521623138567186,0.72154591877397867,0.00000000000000000,0.00333333333333333,-0.00111111111111111,-0.17999999999999999,1.83000000000000007,9.71000000000000085,0.00000000000000000,0.00000000000000000,11.67558512000000093
0.70012855529785156,36.32417232705241616,-2.35117676122660191,31.65107047815980579,0.69229389906870775,-0.00337349847349944,0.00515181162829633,0.72158938161342256,0.00000000000000000,0.00333333333333333,-0.00111111111111111,-0.17999999999999999,1.83000000000000007,9.71000000000000085,0.00000000000000000,0.00000000000000000,11.67558512000000093
0.71015286445617676,36.34492841634052951,-2.36947578953301408,31.67797629986900176,0.69232236751032439,-0.00334124962711745,0.00505707063086576,0.72156288813412717,0.00000000000000000,0.00333333333333333,-0.00111111111111111,-0.17999999999999999,1.83000000000000007,9.71000000000000085,0.00000000000000000,0.00000000000000000,11.67558512000000093
0.72017049789428711,36.36934302965386934,-2.35965509977676646,31.69202658962315766,0.69231236958678410,-0.00344365751401724,0.00500786065292247,0.72157234250748548,0.00000000000000000,0.00333333333333333,-0.00111111111111111,-0.17999999999999999,1.83000000000000007,9.71000000000000085,0.00000000000000000,0.00000000000000000,11.67558512000000093
0.73008036613464355,36.28058861789875067,-2.37987041010121692,31.61742821734128128,0.69239671094432031,-0.00323607969254387,0.00532621792191579,0.72149009270007258,0.00000000000000000,-0.00000000000000000,-0.00000000000000000,-0.17000000000000001,1.85000000000000009,9.72000000000000064,0.00000000000000000,0.00000000000000000,11.66570451199999958
0.74007725715637207,36.33178008684917870,-2.35847534963193572,31.66523373099763816,0.69232903048481309,-0.00333753147538660,0.00514742367002998,0.72155587341603067,0.00000000000000000,-0.00000000000000000,-0.00000000000000000,-0.17000000000000001,1.85000000000000009,9.72000000000000064,0.00000000000000000,0.00000000000000000,11.66570451199999958
0.75011634826660156,36.37642374109240251,-2.34762901597685447,31.66752403855422315,0.69236182650442735,-0.00334813652472938,0.00514378942039779,0.72152438116231621,0.00000000000000000,-0.00000000000000000,-0.00000000000000000,-0.17000000000000001,1.85000000000000009,9.72000000000000064,0.00000000000000000,0.00000000000000000,11.66570451199999958
0.76013898849487305,36.39418826655197847,-2.38951921700448366,31.65690434730746006,0.69238693579888244,-0.00341206590095077,0.00519329708647866,0.72149963174397613,0.00000000000000000,-0.00000000000000000,-0.00000000000000000,-0.17000000000000001,1.85000000000000009,9.72000000000000064,0.00000000000000000,0.00000000000000000,11.66570451199999958
0.77012443542480469,36.35225918643531884,-2.36676072812278582,31.64323148886399295,0.69231012493719868,-0.00341146279676768,0.00512376562637952,0.72157383534662123,0.00000000000000000,-0.00000000000000000,-0.00000000000000000,-0.17000000000000001,1.85000000000000009,9.72000000000000064,0.00000000000000000,0.00000000000000000,11.66570451199999958
0.78003883361816406,36.29662733699847621,-2.37509559541999948,31.63923684557035543,0.69232866583900632,-0.00332585625005958,0.00511973237264113,0.72155647421266889,-0.00111111111111111,0.00222222222222222,-0.00111111111111111,-0.17999999999999999,1.82000000000000006,9.64000000000000057,0.00000000000000000,0.00000000000000000,11.66899804800000062
0.79006242752075195,36.30623038510690748,-2.37340870496268375,31.66773701242425787,0.69239243768985970,-0.00325935102115589,0.00520373204298686,0.72149498268084955,-0.00111111111111111,0.00222222222222222,-0.00111111111111111,-0.17999999999999999,1.82000000000000006,9.64000000000000057,0.00000000000000000,0.00000000000000000,11.66899804800000062
0.80010294914245605,36.32417261882653037,-2.36545348366921937,31.66274038143944480,0.69232829288594244,-0.00331865412129524,0.00518008026577826,0.72155643450315099,-0.00111111111111111,0.00222222222222222,-0.00111111111111111,-0.17999999999999999,1.82000000000000006,9.64000000000000057,0.00000000000000000,0.00000000000000000,11.66899804800000062
0.81014847755432129,36.35969972089816338,-2.36778409095596976,31.64166408279638532,0.69231037295248632,-0.00340637730333623,0.00509696405849597,0.72157381123031572,-0.00111111111111111,0.00222222222222222,-0.00111111111111111,-0.17999999999999999,1.82000000000000006,9.64000000000000057,0.00000000000000000,0.00000000000000000,11.66899804800000062
0.82014679908752441,36.38059052427779960,-2.39340916877795840,31.64362956877569033,0.69236503209774525,-0.00336595679042508,0.00512869188162409,0.72152132967969629,-0.00111111111111111,0.00222222222222222,-0.00111111111111111,-0.17999999999999999,1.82000000000000006,9.64000000000000057,0.00000000000000000,0.00000000000000000,11.66899804800000062
0.83014464378356934,36.33603794398363362,-2.39534836484035329,31.68066994102828815,0.69231470016061147,-0.00337292065162475,0.00514902189161363,0.72156944705368453,-0.28444444444444444,-0.00000000000000000,-0.00000000000000000,-0.19000000000000000,1.85000000000000009,9.67999999999999972,0.00000000000000000,0.00000000000000000,11.67887865600000019
0.84014058113098145,36.36485843379877991,-2.37952789833259937,31.66594710130867085,0.69230656077029740,-0.00346300068112763,0.00506865190309929,0.72157739869578097,-0.28444444444444444,-0.00000000000000000,-0.00000000000000000,-0.19000000000000000,1.85000000000000009,9.67999999999999972,0.00000000000000000,0.00000000000000000,11.67887865600000019
0.85012006759643555,36.34115463330653739,-2.38311187399772217,31.66154338635651300,0.69228393396330257,-0.00339112443007048,0.00507343684126269,0.72159941469627809,-0.28444444444444444,-0.00000000000000000,-0.00000000000000000,-0.19000000000000000,1.85000000000000009,9.67999999999999972,0.00000000000000000,0.00000000000000000,11.67887865600000019
0.86014914512634277,36.32920172258375402,-2.35469618323037855,31.60814695851679801,0.69234224826564672,-0.00328525968056263,0.00518261074918706,0.72154317880576180,-0.28444444444444444,-0.00000000000000000,-0.00000000000000000,-0.19000000000000000,1.85000000000000009,9.67999999999999972,0.00000000000000000,0.00000000000000000,11.67887865600000019
0.87009072303771973,36.36806002231740109,-2.39074653549705962,31.64818926545807187,0.69232876152622846,-0.00345999079506457,0.00505945629084383,0.72155617683538531,-0.28444444444444444,-0.00000000000000000,-0.00000000000000000,-0.19000000000000000,1.85000000000000009,9.67999999999999972,0.00000000000000000,0.00000000000000000,11.67887865600000019
0.88017058372497559,36.39454775751129034,-2.39065163635482714,31.62393053541476107,0.69231708110162782,-0.00349900106372356,0.00505917296523369,0.72156719782386547,-0.28444444444444444,-0.00000000000000000,-0.00000000000000000,-0.19000000000000000,1.85000000000000009,9.67999999999999972,0.00000000000000000,0.00000000000000000,11.67887865600000019
0.89013838768005371,36.39122805762394108,-2.34971935991789360,31.63790917129987790,0.69241170012218223,-0.00339118033286167,0.00513864909430391,0.72147635561766321,0.00000000000000000,-0.00333333333333333,-0.00111111111111111,-0.17999999999999999,1.83000000000000007,9.66999999999999993,0.00000000000000000,0.00000000000000000,11.66241097600000032
0.90004897117614746,36.36821972226110233,-2.38262938550110670,31.64667927300213179,0.69237472997404159,-0.00340230229702978,0.00516334548542821,0.72151160593288477,0.00000000000000000,-0.00333333333333333,-0.00111111111111111,-0.17999999999999999,1.83000000000000007,9.66999999999999993,0.00000000000000000,0.00000000000000000,11.66241097600000032
0.91015052795410156,36.34701743331323343,-2.39227523180963209,31.63735946691675949,0.69236944218839780,-0.00338105111640668,0.00516910417117645,0.72151673880731393,0.00000000000000000,-0.00333333333333333,-0.00111111111111111,-0.17999999999999999,1.83000000000000007,9.66999999999999993,0.00000000000000000,0.00000000000000000,11.66241097600000032
0.92003560066223145,36.37900199623715736,-2.39809136900485598,31.64326726886172381,0.69233007028071958,-0.00347168312870627,0.00518175174639866,0.72155399704400924,0.00000000000000000,-0.00333333333333333,-0.00111111111111111,-0.17999999999999999,1.83000000000000007,9.66999999999999993,0.00000000000000000,0.00000000000000000,11.66241097600000032
0.93003368377685547,36.34026150176511294,-2.40212052264132714,31.63050859659594138,0.69235681001343474,-0.00328494394003267,0.00535509412758456,0.72152794799523601,0.00111111111111111,-0.00333333333333333,0.00222222222222222,-0.19000000000000000,1.84000000000000008,9.68999999999999950,0.00000000000000000,0.00000000000000000,11.66241097600000032
0.94003462791442871,36.31930407682931161,-2.35787987400905630,31.68729887664776967,0.69233264658119875,-0.00340285516537474,0.00502000925848279,0.72155299636384340,0.00111111111111111,-0.00333333333333333,0.00222222222222222,-0.19000000000000000,1.84000000000000008,9.68999999999999950,0.00000000000000000,0.00000000000000000,11.66241097600000032
0.95003747940063477,36.33458135785797793,-2.38784984062094230,31.66773615539243281,0.69237753140369485,-0.00339118050379268,0.00512458893389237,0.72150924629582891,0.00111111111111111,-0.00333333333333333,0.00222222222222222,-0.19000000000000000,1.84000000000000008,9.68999999999999950,0.00000000000000000,0.00000000000000000,11.66241097600000032
0.96013736724853516,36.36386545336787890,-2.40085725715470488,31.62733433877574996,0.69232630145267171,-0.00346181779528479,0.00517457059216571,0.72155771214339026,0.00111111111111111,-0.00333333333333333,0.00222222222222222,-0.19000000000000000,1.84000000000000008,9.68999999999999950,0.00000000000000000,0.00000000000000000,11.66241097600000032
0.97005224227905273,36.38621721279037757,-2.39686618163812426,31.66118861105520566,0.69238499710927148,-0.00345801499738835,0.00498988373915554,0.72150270891420898,0.00111111111111111,-0.00333333333333333,0.00222222222222222,-0.19000000000000000,1.84000000000000008,9.68999999999999950,0.00000000000000000,0.00000000000000000,11.66241097600000032
0.98003530502319336,36.32358071854705628,-2.39017202038078125,31.64127721491964351,0.69233647724672354,-0.00340122490789932,0.00516153005154017,0.72154833001695029,-0.00111111111111111,0.00111111111111111,-0.00111111111111111,-0.17999999999999999,1.85000000000000009,9.69999999999999929,0.00000000000000000,0.00000000000000000,11.68217219200000123
0.99014091491699219,36.28070063806266177,-2.36019163601929449,31.67920857793561140,0.69237927996274362,-0.00328580103618815,0.00512333106932792,0.72150806486731500,-0.00111111111111111,0.00111111111111111,-0.00111111111111111,-0.17999999999999999,1.85000000000000009,9.69999999999999929,0.00000000000000000,0.00000000000000000,11.68217219200000123
1.00000095367431641,36.34239653046832785,-2.35326121447368797,31.68097041469607333,0.69231637436003379,-0.00331745271176471,0.00505785930062539,0.72156874264326165,-0.00111111111111111,0.00111111111111111,-0.00111111111111111,-0.17999999999999999,1.85000000000000009,9.69999999999999929,0.00000000000000000,0.00000000000000000,11.68217219200000123
1.01014828681945801,36.38138571452009984,-2.33610948983375044,31.69531016361804276,0.69230565159172974,-0.00348335137147571,0.00491757506872871,0.72157921844577566,-0.00111111111111111,0.00111111111111111,-0.00111111111111111,-0.17999999999999999,1.85000000000000009,9.69999999999999929,0.00000000000000000,0.00000000000000000,11.68217219200000123
1.02003431320190430,36.36515134398998583,-2.36302398680661341,31.67711814111263280,0.69236216821455299,-0.00338117608280797,0.00505643155558335,0.72152451668218698,-0.00111111111111111,0.00111111111111111,-0.00111111111111111,-0.17999999999999999,1.85000000000000009,9.69999999999999929,0.00000000000000000,0.00000000000000000,11.68217219200000123
1.03004765510559082,36.39646149153402632,-2.34020580246260446,31.66446970630924440,0.69232780718319653,-0.00342120473217795,0.00496127678881989,0.72155795920474175,-0.00111111111111111,0.00111111111111111,-0.00111111111111111,-0.17999999999999999,1.85000000000000009,9.69999999999999929,0.00000000000000000,0.00000000000000000,11.68217219200000123
1.04003524780273438,36.29834708636851559,-2.35474490507669865,31.70798591137365463,0.69230371569798466,-0.00325086089690663,0.00514467243756205,0.72158057726057412,0.00000000000000000,0.00333333333333333,-0.00111111111111111,-0.20000000000000001,1.83000000000000007,9.67999999999999972,0.00000000000000000,0.00000000000000000,11.67887865600000019
1.05003213882446289,36.35054037789127790,-2.37801220156600257,31.69962669225350638,0.69231398588610749,-0.00338187685474596,0.00507060467706664,0.72157064576078656,0.00000000000000000,0.00333333333333333,-0.00111111111111111,-0.20000000000000001,1.83000000000000007,9.67999999999999972,0.00000000000000000,0.00000000000000000,11.67887865600000019
1.06013917922973633,36.39162392180918459,-2.38510583834257295,31.67094668993324547,0.69232803733796955,-0.00354458405739990,0.00501194331291900,0.72155679268082784,0.00000000000000000,0.00333333333333333,-0.00111111111111111,-0.20000000000000001,1.83000000000000007,9.67999999999999972,0.00000000000000000,0.00000000000000000,11.67887865600000019
1.07003092765808105,36.37545602786300236,-2.36443280895936558,31.69176757962117463,0.69235140963003139,-0.00340272453366573,0.00496630665127195,0.72153536493182513,0.00000000000000000,0.00333333333333333,-0.00111111111111111,-0.20000000000000001,1.83000000000000007,9.67999999999999972,0.00000000000000000,0.00000000000000000,11.67887865600000019
1.08003091812133789,36.29773071927633765,-2.38855854571245985,31.65017265734879359,0.69231483605190036,-0.00342617169175114,0.00507557778136759,0.72156958613854749,0.00000000000000000,-0.00111111111111111,-0.00222222222222222,-0.19000000000000000,1.83000000000000007,9.68999999999999950,0.00000000000000000,0.00000000000000000,11.68217219200000123
1.09003758430480957,36.32315606967174659,-2.33430550506391166,31.67704941985297395,0.69233084424636537,-0.00333902552270464,0.00503031651644983,0.72155495212036225,0.00000000000000000,-0.00111111111111111,-0.00222222222222222,-0.19000000000000000,1.83000000000000007,9.68999999999999950,0.00000000000000000,0.00000000000000000,11.68217219200000123
1.10003638267517090,36.33020077551272919,-2.35681955745134664,31.67989395672787012,0.69230575104115022,-0.00339937163723305,0.00510175034281175,0.72157824488496081,0.00000000000000000,-0.00111111111111111,-0.00222222222222222,-0.19000000000000000,1.83000000000000007,9.68999999999999950,0.00000000000000000,0.00000000000000000,11.68217219200000123
1.11008834838867188,36.31494533763771670,-2.36545605115047408,31.60516271052821580,0.69234650671725650,-0.00336114219108851,0.00518350658435494,0.72153873674188307,0.00000000000000000,-0.00111111111111111,-0.00222222222222222,-0.19000000000000000,1.83000000000000007,9.68999999999999950,0.00000000000000000,0.00000000000000000,11.68217219200000123
1.12003064155578613,36.37341347520335688,-2.39040356839790258,31.65919926324609079,0.69234003225876661,-0.00345030855668898,0.00506576036122231,0.72154536459931351,0.00000000000000000,-0.00111111111111111,-0.00222222222222222,-0.19000000000000000,1.83000000000000007,9.68999999999999950,0.00000000000000000,0.00000000000000000,11.68217219200000123
1.13003182411193848,36.31592011301578538,-2.38837497281323374,31.61855104949458806,0.69239766091424348,-0.00333877327032037,0.00516929392065015,0.72148985450517300,-0.28222222222222221,0.00333333333333333,-0.00111111111111111,-0.17999999999999999,1.84000000000000008,9.69999999999999929,0.00000000000000000,0.00000000000000000,11.66899804800000062
1.14013195037841797,36.33129191504423261,-2.35594759089452088,31.64806730765782561,0.69236570330929958,-0.00338358914809320,0.00506131956435869,0.72152107886725181,-0.28222222222222221,0.00333333333333333,-0.00111111111111111,-0.17999999999999999,1.84000000000000008,9.69999999999999929,0.00000000000000000,0.00000000000000000,11.66899804800000062
1.15000057220458984,36.36438222313338287,-2.38361447683508709,31.64425645051429470,0.69233063489963653,-0.00344489147535647,0.00508919902022071,0.72155424242084665,-0.28222222222222221,0.00333333333333333,-0.00111111111111111,-0.17999999999999999,1.84000000000000008,9.69999999999999929,0.00000000000000000,0.00000000000000000,11.66899804800000062
1.16013216972351074,36.34785434873111143,-2.40151821571414237,31.59078659993796734,0.69228028354529070,-0.00338809030415015,0.00530936122817964,0.72160123374471286,-0.28222222222222221,0.00333333333333333,-0.00111111111111111,-0.17999999999999999,1.84000000000000008,9.69999999999999929,0.00000000000000000,0.00000000000000000,11.66899804800000062
1.17003154754638672,36.35682979541456916,-2.38112029615976439,31.63210331349041482,0.69233363085389621,-0.00343780760178303,0.00508684666866708,0.72155141816680213,-0.28222222222222221,0.00333333333333333,-0.00111111111111111,-0.17999999999999999,1.84000000000000008,9.69999999999999929,0.00000000000000000,0.00000000000000000,11.66899804800000062
1.18004941940307617,36.39113399080431321,-2.37544659268351888,31.62219129384322969,0.69229084183814860,-0.00341918828769029,0.00516607013889166,0.72159199772295179,0.00000000000000000,-0.00111111111111111,-0.00111111111111111,-0.16000000000000000,1.84000000000000008,9.65000000000000036,0.00000000000000000,0.00000000000000000,11.67229158399999989
1.19003486633300781,36.31127741596534264,-2.39136509569664701,31.61382603607624375,0.69230554329099081,-0.00333285626399353,0.00539162567484313,0.72157664677445865,0.00000000000000000,-0.00111111111111111,-0.00111111111111111,-0.16000000000000000,1.84000000000000008,9.65000000000000036,0.00000000000000000,0.00000000000000000,11.67229158399999989
1.20004129409790039,36.28604990728649682,-2.37892159478532372,31.63992252125227367,0.69231775752855529,-0.00325983271852306,0.00524557202815079,0.72156633795887204,0.00000000000000000,-0.00111111111111111,-0.00111111111111111,-0.16000000000000000,1.84000000000000008,9.65000000000000036,0.00000000000000000,0.00000000000000000,11.67229158399999989
1.21013045310974121,36.33510198861704765,-2.38066831321057037,31.63735669196360334,0.69228989058130919,-0.00340295334230485,0.00511886244710622,0.72159332352421079,0.00000000000000000,-0.00111111111111111,-0.00111111111111111,-0.16000000000000000,1.84000000000000008,9.65000000000000036,0.00000000000000000,0.00000000000000000,11.67229158399999989
1.22003698348999023,36.37376066068481606,-2.40677480231404894,31.63508585554165720,0.69230187159930878,-0.00350492201863243,0.00506107044677139,0.72158174843025980,0.00000000000000000,-0.00111111111111111,-0.00111111111111111,-0.16000000000000000,1.84000000000000008,9.65000000000000036,0.00000000000000000,0.00000000000000000,11.67229158399999989
1.23003315925598145,36.29013118045163111,-2.39899788267747249,31.65006244754248499,0.69228240718927103,-0.00331942216098312,0.00520319471587152,0.72160028887015693,0.00000000000000000,-0.00111111111111111,-0.00111111111111111,-0.16000000000000000,1.84000000000000008,9.65000000000000036,0.00000000000000000,0.00000000000000000,11.67229158399999989
1.24005365371704102,36.36667302095372634,-2.36038987788467614,31.71182364475167503,0.69232653871203409,-0.00340216910299968,0.00497770812300480,0.72155915312762187,0.00222222222222222,-0.00000000000000000,-0.00222222222222222,-0.16000000000000000,1.84000000000000008,9.68999999999999950,0.00000000000000000,0.00000000000000000,11.68875926399999976
1.25003695487976074,36.34938854874675940,-2.33954904277367115,31.69753228674914070,0.69236321457699079,-0.00347672244562808,0.00490232347061341,0.72152412206816863,0.00222222222222222,-0.00000000000000000,-0.00222222222222222,-0.16000000000000000,1.84000000000000008,9.68999999999999950,0.00000000000000000,0.00000000000000000,11.68875926399999976
1.26014018058776855,36.39599828483046196,-2.36583424051565805,31.66365941058683475,0.69230826658065325,-0.00354236530669629,0.00495121001652022,0.72157619222885783,0.00222222222222222,-0.00000000000000000,-0.00222222222222222,-0.16000000000000000,1.84000000000000008,9.68999999999999950,0.00000000000000000,0.00000000000000000,11.68875926399999976
1.27003312110900879,36.36775937823249905,-2.37506154551501325,31.65644360704184734,0.69228187563539489,-0.00354973679331182,0.00494819564662570,0.72160149625349346,0.00222222222222222,-0.00000000000000000,-0.00222222222222222,-0.16000000000000000,1.84000000000000008,9.68999999999999950,0.00000000000000000,0.00000000000000000,11.68875926399999976
1.28005003929138184,36.39076791581260295,-2.35901418425360143,31.66115479851880821,0.69229292473632142,-0.00349581578886588,0.00490147223817463,0.72159147805520740,-0.00222222222222222,0.00111111111111111,-0.00111111111111111,-0.19000000000000000,1.85000000000000009,9.69999999999999929,0.00000000000000000,0.00000000000000000,11.68217219200000123
1.29003357887268066,36.34828602680688192,-2.34618378776351255,31.69326856162442141,0.69233396053617380,-0.00338014197022764,0.00498766442244648,0.72155206668137684,-0.00222222222222222,0.00111111111111111,-0.00111111111111111,-0.19000000000000000,1.85000000000000009,9.69999999999999929,0.00000000000000000,0.00000000000000000,11.68217219200000123
1.29999947547912598,36.32750363922342984,-2.37881180462181741,31.68227921102286260,0.69230941861616568,-0.00339662091921747,0.00506498078824651,0.72157499806416037,-0.00222222222222222,0.00111111111111111,-0.00111111111111111,-0.19000000000000000,1.85000000000000009,9.69999999999999929,0.00000000000000000,0.00000000000000000,11.68217219200000123
1.31013441085815430,36.36445941656788960,-2.40129168959145645,31.66612846402293258,0.69232711909969336,-0.00346682119257783,0.00498562362352451,0.72155823387098972,-0.00222222222222222,0.00111111111111111,-0.00111111111111111,-0.19000000000000000,1.85000000000000009,9.69999999999999929,0.00000000000000000,0.00000000000000000,11.68217219200000123
1.32004141807556152,36.39024453129756864,-2.35650950802986836,31.72354074931207890,0.69231505568963547,-0.00345245088670818,0.00481599839544001,0.72157102935732320,-0.00222222222222222,0.00111111111111111,-0.00111111111111111,-0.19000000000000000,1.85000000000000009,9.69999999999999929,0.00000000000000000,0.00000000000000000,11.68217219200000123
1.33003711700439453,36.31958302359705471,-2.38501766369221357,31.62900190815848589,0.69232962135638121,-0.00334655267223836,0.00522417278898071,0.72155471309971531,-0.28444444444444444,0.00222222222222222,-0.00111111111111111,-0.17000000000000001,1.85000000000000009,9.71000000000000085,0.00000000000000000,0.00000000000000000,11.67887865600000019
1.34003710746765137,36.29584641567205239,-2.38163562990505673,31.64810026876327598,0.69231753604694668,-0.00337910093718112,0.00517985990946718,0.72156647650099393,-0.28444444444444444,0.00222222222222222,-0.00111111111111111,-0.17000000000000001,1.85000000000000009,9.71000000000000085,0.00000000000000000,0.00000000000000000,11.67887865600000019
1.35003256797790527,36.35260922281386087,-2.37789013681806916,31.66910564204752987,0.69233226896981825,-0.00342435493569514,0.00504022629324839,0.72155311603186245,-0.28444444444444444,0.00222222222222222,-0.00111111111111111,-0.17000000000000001,1.85000000000000009,9.71000000000000085,0.00000000000000000,0.00000000000000000,11.67887865600000019
1.36016798019409180,36.39072096242804832,-2.38543912126408841,31.66345377404069339,0.69233664543946083,-0.00346924217125342,0.00498384762217693,0.72154909396607947,-0.28444444444444444,0.00222222222222222,-0.00111111111111111,-0.17000000000000001,1.85000000000000009,9.71000000000000085,0.00000000000000000,0.00000000000000000,11.67887865600000019
1.37003922462463379,36.36665112664820754,-2.38609727366112390,31.64961066993128824,0.69234456186591031,-0.00344015158422129,0.00504439166875937,0.72154121651120540,-0.28444444444444444,0.00222222222222222,-0.00111111111111111,-0.17000000000000001,1.85000000000000009,9.71000000000000085,0.00000000000000000,0.00000000000000000,11.67887865600000019
1.38003659248352051,36.30465826310687305,-2.40350942673267776,31.66624401648643072,0.69233653709529019,-0.00338514297600291,0.00516916009151297,0.72154829359778971,-0.28444444444444444,0.00222222222222222,-0.00111111111111111,-0.17000000000000001,1.85000000000000009,9.71000000000000085,0.00000000000000000,0.00000000000000000,11.67887865600000019
1.39003992080688477,36.33935166849880716,-2.38976773957961663,31.67541866040436105,0.69229797525049430,-0.00342529267157984,0.00511884901167283,0.72158546147977176,0.00000000000000000,-0.28333333333333333,-0.00111111111111111,-0.19000000000000000,1.83000000000000007,9.66000000000000014,1.30000000000000004,1.30000000000000004,11.67558512000000093
1.40003991127014160,36.34263216167946098,-2.35611667443880313,31.68713472016921173,0.69232688770582018,-0.00340616738435818,0.00498232792837650,0.72155876752468107,0.00000000000000000,-0.28333333333333333,-0.00111111111111111,-0.19000000000000000,1.83000000000000007,9.66000000000000014,1.30000000000000004,1.30000000000000004,11.67558512000000093
1.41015648841857910,36.40792672881220682,-2.37855821044759574,31.66283850507723230,0.69234566170484679,-0.00354086254340813,0.00493485968701104,0.72154043141794622,0.00000000000000000,-0.28333333333333333,-0.00111111111111111,-0.19000000000000000,1.83000000000000007,9.66000000000000014,1.30000000000000004,1.30000000000000004,11.67558512000000093
1.42003965377807617,36.39756493458364872,-2.38758539910324652,31.63059158552812633,0.69234437864435749,-0.00352291758396901,0.00503585979627505,0.72154105255859657,0.00000000000000000,-0.28333333333333333,-0.00111111111111111,-0.19000000000000000,1.83000000000000007,9.66000000000000014,1.30000000000000004,1.30000000000000004,11.67558512000000093
1.43005347251892090,36.39653754843573807,-2.36157919654761761,31.64968597019222329,0.69232826642022494,-0.00343397542812992,0.00501165090883108,0.72155710978653165,0.00000000000000000,0.00222222222222222,-0.00000000000000000,-0.14999999999999999,1.84000000000000008,9.69999999999999929,31.19999999999999929,31.19999999999999929,11.66570451199999958
1.44002485275268555,36.41076762255838872,-2.35757351000032855,31.73516160207111980,0.69235464092107812,-0.00339621215891631,0.00493080077251402,0.72153253851905974,0.00000000000000000,0.00222222222222222,-0.00000000000000000,-0.14999999999999999,1.84000000000000008,9.69999999999999929,31.19999999999999929,31.19999999999999929,11.66570451199999958
1.45002150535583496,36.34640276169290729,-2.33937457132073590,31.76941314898980195,0.69231953720648498,-0.00327047114386894,0.00485324097236385,0.72156732774756349,0.00000000000000000,0.00222222222222222,-0.00000000000000000,-0.14999999999999999,1.84000000000000008,9.69999999999999929,31.19999999999999929,31.19999999999999929,11.66570451199999958
1.46013236045837402,36.25840914916900459,-2.10930487311351067,31.86056438602598107,0.69205815555188877,-0.00296138463514268,0.00495035411455531,0.72181869851736402,0.00000000000000000,0.00222222222222222,-0.00000000000000000,-0.14999999999999999,1.84000000000000008,9.69999999999999929,31.19999999999999929,31.19999999999999929,11.66570451199999958
1.47004485130310059,36.22287492762261962,-1.54583768262986365,31.88357780557082322,0.69175717751643284,-0.00307933913120109,0.00464784822148241,0.72210866393633788,0.00000000000000000,0.00222222222222222,-0.00000000000000000,-0.14999999999999999,1.84000000000000008,9.69999999999999929,31.19999999999999929,31.19999999999999929,11.66570451199999958
1.48003315925598145,36.11380527854301192,-0.82341720900209359,31.83119725655097554,0.69163238268673666,-0.00308350729493360,0.00477373798601850,0.72222735383497538,0.00000000000000000,0.00222222222222222,-0.00000000000000000,-0.14999999999999999,1.84000000000000008,9.69999999999999929,31.19999999999999929,31.19999999999999929,11.66570451199999958
1.49003434181213379,36.09148789957728098,0.28833943574350229,31.88314497554112492,0.69163817518648596,-0.00307488298732740,0.00459898055715663,0.72222297740874797,0.00111111111111111,-0.14999999999999999,0.01111111111111111,4.75000000000000000,1.92999999999999994,9.21000000000000085,57.39999999999999858,57.39999999999999858,11.66241097600000032
1.50004673004150391,36.16247793985018433,1.68861162314420565,31.82500488752345191,0.69179536262766583,-0.00321194537541326,0.00448288869956585,0.72207254716037261,0.00111111111111111,-0.14999999999999999,0.01111111111111111,4.75000000000000000,1.92999999999999994,9.21000000000000085,57.39999999999999858,57.39999999999999858,11.66241097600000032
1.51010394096374512,36.04850051340946493,3.06266194110148149,31.89511860511018426,0.69173158191270889,-0.00299747799293915,0.00457985718617130,0.72213396168465682,0.00111111111111111,-0.14999999999999999,0.01111111111111111,4.75000000000000000,1.92999999999999994,9.21000000000000085,57.39999999999999858,57.39999999999999858,11.66241097600000032
1.52003622055053711,36.03970921013156214,4.78456186215375823,31.77759883377810368,0.69184622020849851,-0.00311265203410504,0.00475486983825082,0.72202251363330072,0.00111111111111111,-0.14999999999999999,0.01111111111111111,4.75000000000000000,1.92999999999999994,9.21000000000000085,57.39999999999999858,57.39999999999999858,11.66241097600000032
1.53002977371215820,35.94040166392755253,6.66506098019230020,31.69939057785606451,0.69206359167083475,-0.00298724127627451,0.00488042964186777,0.72181385611508764,0.00111111111111111,-0.14999999999999999,0.01111111111111111,4.75000000000000000,1.92999999999999994,9.21000000000000085,57.39999999999999858,57.39999999999999858,11.66241097600000032
1.54003477096557617,35.93841344204464150,8.99155759080314532,31.82469094027991829,0.69233289922964192,-0.00302514041308981,0.00460559898493767,0.72155720052380445,-0.00555555555555556,-0.06333333333333334,0.00777777777777778,3.18999999999999995,1.82000000000000006,8.93999999999999950,59.70000000000000284,59.70000000000000284,11.56360489600000108
1.55004620552062988,35.81298894736013239,11.73414792902397608,31.78209451918378292,0.69271966053452583,-0.00276476825483468,0.00471135844519566,0.72118626655464602,-0.00555555555555556,-0.06333333333333334,0.00777777777777778,3.18999999999999995,1.82000000000000006,8.93999999999999950,59.70000000000000284,59.70000000000000284,11.56360489600000108
1.56019544601440430,35.83365055397022303,14.52539635263037177,31.87857641220032789,0.69319655605372688,-0.00254148340711744,0.00416541750978620,0.72073207562471731,-0.00555555555555556,-0.06333333333333334,0.00777777777777778,3.18999999999999995,1.82000000000000006,8.93999999999999950,59.70000000000000284,59.70000000000000284,11.56360489600000108
1.57008314132690430,35.73136733391070408,17.79207791943025896,31.94967722164885515,0.69371421354092122,-0.00225814234110410,0.00416450314179936,0.72023478646761474,-0.00555555555555556,-0.06333333333333334,0.00777777777777778,3.18999999999999995,1.82000000000000006,8.93999999999999950,59.70000000000000284,59.70000000000000284,11.56360489600000108
1.58003711700439453,35.47074556308258764,20.78146698197771869,31.73741057258716225,0.69418348536186514,-0.00223973953131549,0.00487302057024654,0.71977810878645543,0.04666666666666667,-0.09000000000000000,-0.07555555555555556,5.95000000000000018,1.95999999999999996,8.99000000000000021,60.39999999999999858,60.39999999999999858,11.58995318400000052
1.59000349044799805,35.59471896715793804,24.68121237671320500,31.70525567409117329,0.69470177648029852,-0.00207240608725412,0.00419613769761222,0.71928265606543673,0.04666666666666667,-0.09000000000000000,-0.07555555555555556,5.95000000000000018,1.95999999999999996,8.99000000000000021,60.39999999999999858,60.39999999999999858,11.58995318400000052
1.60002636909484863,35.49863479253657061,28.22162992721779418,31.66928542124609081,0.69499207927013762,-0.00221058703664963,0.00384205766198173,0.71900372853667882,0.04666666666666667,-0.09000000000000000,-0.07555555555555556,5.95000000000000018,1.95999999999999996,8.99000000000000021,60.39999999999999858,60.39999999999999858,11.58995318400000052
1.61010217666625977,35.28105973991205957,31.94190623917116412,31.60067050809351485,0.69491203934775736,-0.00248261031179525,0.00426526784413163,0.71907781338725696,0.04666666666666667,-0.09000000000000000,-0.07555555555555556,5.95000000000000018,1.95999999999999996,8.99000000000000021,60.39999999999999858,60.39999999999999858,11.58995318400000052
1.62005209922790527,35.02753952376352942,35.91746001471497607,31.58422185700155538,0.69459815761382038,-0.00225625054651516,0.00473552910031565,0.71937881782625335,0.04666666666666667,-0.09000000000000000,-0.07555555555555556,5.95000000000000018,1.95999999999999996,8.99000000000000021,60.39999999999999858,60.39999999999999858,11.58995318400000052
1.63003134727478027,35.02415447812725802,39.69056478966342638,31.50193310049526474,0.69459788908716147,-0.00220940210401635,0.00437942301771878,0.71938147854391821,0.04666666666666667,-0.09000000000000000,-0.07555555555555556,5.95000000000000018,1.95999999999999996,8.99000000000000021,60.39999999999999858,60.39999999999999858,11.58995318400000052
1.64014148712158203,34.90799878867890271,43.82746176613792954,31.56846119108499238,0.69437262768834385,-0.00240136062643771,0.00419002470260095,0.71959942403903987,-0.03666666666666667,0.00777777777777778,-0.15444444444444444,2.47999999999999998,2.81999999999999984,8.69999999999999929,63.39999999999999858,63.39999999999999858,11.63276915199999983
1.65004014968872070,34.75541000824039628,47.69648307723883818,31.48307861187518597,0.69433556623786530,-0.00240246022911908,0.00398025293377407,0.71963637152979776,-0.03666666666666667,0.00777777777777778,-0.15444444444444444,2.47999999999999998,2.81999999999999984,8.69999999999999929,63.39999999999999858,63.39999999999999858,11.63276915199999983
1.66014242172241211,34.44263612362124860,51.92001564430029248,31.63553712861043721,0.69406188687945236,-0.00205407152612235,0.00424749899076743,0.71989987965259650,-0.03666666666666667,0.00777777777777778,-0.15444444444444444,2.47999999999999998,2.81999999999999984,8.69999999999999929,63.39999999999999858,63.39999999999999858,11.63276915199999983
1.67004179954528809,34.21619488929449204,56.41511903775131032,31.66350303578639469,0.69386515958378814,-0.00175062925952071,0.00453561667791219,0.72008853885776536,-0.03666666666666667,0.00777777777777778,-0.15444444444444444,2.47999999999999998,2.81999999999999984,8.69999999999999929,63.39999999999999858,63.39999999999999858,11.63276915199999983
1.68002986907958984,34.26037172082983062,60.36509561898723319,31.42018003138672100,0.69377642718928056,-0.00185628190259968,0.00436699820528458,0.72017480698831060,-0.03666666666666667,0.00777777777777778,-0.15444444444444444,2.47999999999999998,2.81999999999999984,8.69999999999999929,63.39999999999999858,63.39999999999999858,11.63276915199999983
1.69003534317016602,34.14535550166916522,64.96286574555021787,31.43877029709082294,0.69358109306759019,-0.00224488774897349,0.00392754047769417,0.72036435381267805,-0.00111111111111111,-0.01555555555555556,0.02888888888888889,-1.72999999999999998,0.13000000000000000,13.89000000000000057,63.39999999999999858,63.39999999999999858,11.61300793600000070
1.70006132125854492,33.85353006243224172,69.50006818069934411,31.33849752337053474,0.69344933017795152,-0.00219535686500344,0.00414746333635395,0.72049011473569757,-0.00111111111111111,-0.01555555555555556,0.02888888888888889,-1.72999999999999998,0.13000000000000000,13.89000000000000057,63.39999999999999858,63.39999999999999858,11.61300793600000070
1.71015715599060059,33.63261242274558782,73.66006993653236634,31.39271598160705423,0.69324415329700051,-0.00174440593652989,0.00400362694793328,0.72068958084512058,-0.00111111111111111,-0.01555555555555556,0.02888888888888889,-1.72999999999999998,0.13000000000000000,13.89000000000000057,63.39999999999999858,63.39999999999999858,11.61300793600000070
1.72003316879272461,33.35113708931373111,78.12953711275099522,31.47426604677526640,0.69308747371986679,-0.00154319265895556,0.00422557160054035,0.72083945291145013,-0.00111111111111111,-0.01555555555555556,0.02888888888888889,-1.72999999999999998,0.13000000000000000,13.89000000000000057,63.39999999999999858,63.39999999999999858,11.61300793600000070
1.73006510734558105,33.26711351374666492,82.28707604966928102,31.45431206976855165,0.69320360922633917,-0.00125534341155148,0.00437741714209888,0.72072742315500915,0.00666666666666667,0.04444444444444445,0.03000000000000000,-0.75000000000000000,0.35999999999999999,11.17999999999999972,64.20000000000000284,64.20000000000000284,11.64264976000000118
1.74002695083618164,33.25947105735498610,86.73243429245813729,31.46508711438346495,0.69293117290015416,-0.00175734835605540,0.00381187797367584,0.72099151932341443,0.00666666666666667,0.04444444444444445,0.03000000000000000,-0.75000000000000000,0.35999999999999999,11.17999999999999972,64.20000000000000284,64.20000000000000284,11.64264976000000118
1.75002646446228027,33.02003625240754303,90.78978751944502790,31.46593961874749823,0.69265404715927137,-0.00167522543122188,0.00372612982585826,0.72125840066522418,0.00666666666666667,0.04444444444444445,0.03000000000000000,-0.75000000000000000,0.35999999999999999,11.17999999999999972,64.20000000000000284,64.20000000000000284,11.64264976000000118
1.76010107994079590,32.83707299927920786,95.33335409176085307,31.44397000071898063,0.69245266593814070,-0.00156310454458702,0.00366868240304976,0.72145228734045164,0.00666666666666667,0.04444444444444445,0.03000000000000000,-0.75000000000000000,0.35999999999999999,11.17999999999999972,64.20000000000000284,64.20000000000000284,11.64264976000000118
1.77003359794616699,32.84638694557572336,99.88656395010802669,31.41920915804345427,0.69210148726055132,-0.00170146823277188,0.00353739642357993,0.72178952830040966,0.00666666666666667,0.04444444444444445,0.03000000000000000,-0.75000000000000000,0.35999999999999999,11.17999999999999972,64.20000000000000284,64.20000000000000284,11.64264976000000118
1.78003406524658203,32.50380837995512451,104.06121127364485801,31.45340920547264218,0.69183802051100185,-0.00149036961116630,0.00359092044143649,0.72204226847479214,-0.02555555555555556,-0.03444444444444444,0.05222222222222223,-0.20000000000000001,1.64999999999999991,9.58999999999999986,64.20000000000000284,64.20000000000000284,11.67887865600000019
1.79003834724426270,32.27472564172401803,108.66150748269551229,31.44539319426931456,0.69159355023143154,-0.00148270957726194,0.00369048772792968,0.72227594667891559,-0.02555555555555556,-0.03444444444444444,0.05222222222222223,-0.20000000000000001,1.64999999999999991,9.58999999999999986,64.20000000000000284,64.20000000000000284,11.67887865600000019
1.80006074905395508,32.10690984944415050,113.32674275403633146,31.48781901437372710,0.69139180125401856,-0.00144698225623570,0.00342137271228305,0.72247046833060080,-0.02555555555555556,-0.03444444444444444,0.05222222222222223,-0.20000000000000001,1.64999999999999991,9.58999999999999986,64.20000000000000284,64.20000000000000284,11.67887865600000019
1.81015872955322266,31.97541295960311913,117.32367359207317747,31.47792837336901428,0.69123658987121406,-0.00174349360959950,0.00367045651932639,0.72261709418072051,-0.02555555555555556,-0.03444444444444444,0.05222222222222223,-0.20000000000000001,1.64999999999999991,9.58999999999999986,64.20000000000000284,64.20000000000000284,11.67887865600000019
1.82003569602966309,31.72665898072148138,121.85752291486745946,31.55412460728109636,0.69103831261090365,-0.00173368015751402,0.00340405824202019,0.72280803623401346,-0.02555555555555556,-0.03444444444444444,0.05222222222222223,-0.20000000000000001,1.64999999999999991,9.58999999999999986,64.20000000000000284,64.20000000000000284,11.67887865600000019
1.83004975318908691,31.44217733320684260,126.64272453527253504,31.64725723201495100,0.69087137331261972,-0.00145388301334639,0.00301518787244727,0.72296994432923156,-0.02555555555555556,-0.03444444444444444,0.05222222222222223,-0.20000000000000001,1.64999999999999991,9.58999999999999986,64.20000000000000284,64.20000000000000284,11.67887865600000019
1.84003853797912598,31.06880688856328376,130.64002435010652903,31.70821148079573604,0.69052290150804341,-0.00120349327290566,0.00345176945652331,0.72330129225964568,-0.00333333333333333,-0.01777777777777778,0.06555555555555556,-1.45999999999999996,2.39999999999999991,9.55000000000000071,64.90000000000000568,64.90000000000000568,11.62288854400000027
1.85003709793090820,30.87135530533788597,135.28105438602619870,31.80588253907430030,0.69035614248322763,-0.00111362190244592,0.00345214443072343,0.72346059953584607,-0.00333333333333333,-0.01777777777777778,0.06555555555555556,-1.45999999999999996,2.39999999999999991,9.55000000000000071,64.90000000000000568,64.90000000000000568,11.62288854400000027
1.86015534400939941,30.63207803495477677,139.28971085858378842,31.92794151592974927,0.69023251564696064,-0.00117154040759138,0.00347825169313321,0.72357833273385153,-0.00333333333333333,-0.01777777777777778,0.06555555555555556,-1.45999999999999996,2.39999999999999991,9.55000000000000071,64.90000000000000568,64.90000000000000568,11.62288854400000027
1.87014293670654297,30.34769459189191210,143.89164659090076270,31.87763498965946596,0.68993665139616966,-0.00103831818088931,0.00373516193065135,0.72385936998905198,-0.00333333333333333,-0.01777777777777778,0.06555555555555556,-1.45999999999999996,2.39999999999999991,9.55000000000000071,64.90000000000000568,64.90000000000000568,11.62288854400000027
1.88013195991516113,30.29785107056148874,147.96384352408821883,31.92439647190940377,0.68985660002811666,-0.00112231210997571,0.00354897397011792,0.72393647276327644,-0.00333333333333333,-0.01777777777777778,0.06555555555555556,-1.45999999999999996,2.39999999999999991,9.55000000000000071,64.90000000000000568,64.90000000000000568,11.62288854400000027
1.89012026786804199,30.29559429635046897,152.41695884100715830,31.84765172279324474,0.68946148755640502,-0.00149922575952502,0.00368321004470131,0.72431142712399510,-0.00333333333333333,-0.01777777777777778,0.06555555555555556,-1.45999999999999996,2.39999999999999991,9.55000000000000071,64.90000000000000568,64.90000000000000568,11.62288854400000027
1.90005397796630859,30.13273284516021633,157.05344085589479164,31.80494842594515248,0.68943115051758841,-0.00145142647627888,0.00380160941916974,0.72433978892713202,0.02444444444444445,0.27777777777777779,0.06111111111111111,3.39999999999999991,2.54000000000000004,10.38000000000000078,69.40000000000000568,69.40000000000000568,11.65253036800000075
1.91014003753662109,30.01490457402953282,161.21574307600556608,31.79731822011584441,0.68920918465928882,-0.00182793343962602,0.00313377859728899,0.72455333680297263,0.02444444444444445,0.27777777777777779,0.06111111111111111,3.39999999999999991,2.54000000000000004,10.38000000000000078,69.40000000000000568,69.40000000000000568,11.65253036800000075
1.92003631591796875,29.69158676319046819,165.99150962552940314,31.65310907538963647,0.68906573335559418,-0.00184002386976569,0.00334876098348160,0.72468877128540587,0.02444444444444445,0.27777777777777779,0.06111111111111111,3.39999999999999991,2.54000000000000004,10.38000000000000078,69.40000000000000568,69.40000000000000568,11.65253036800000075
1.93003201484680176,29.50768176964475131,170.28123804927938068,31.61570473722406405,0.68880629187499376,-0.00198201269874539,0.00294293221646352,0.72493675796517043,0.03555555555555556,-0.06444444444444444,0.06333333333333334,1.62000000000000011,0.56000000000000005,9.89000000000000057,70.90000000000000568,70.90000000000000568,11.63276915199999983
1.94011640548706055,29.26132842795897560,175.30706260941278174,31.72174124919298421,0.68850598510649619,-0.00220066923761947,0.00267624485966333,0.72522238192218746,0.03555555555555556,-0.06444444444444444,0.06333333333333334,1.62000000000000011,0.56000000000000005,9.89000000000000057,70.90000000000000568,70.90000000000000568,11.63276915199999983
1.95013475418090820,28.83309834631286250,180.11098501194899768,31.60433283398077720,0.68831217147888979,-0.00179977743732249,0.00350326955117846,0.72540391679232286,0.03555555555555556,-0.06444444444444444,0.06333333333333334,1.62000000000000011,0.56000000000000005,9.89000000000000057,70.90000000000000568,70.90000000000000568,11.63276915199999983
1.96013474464416504,28.63811641859582835,184.51978273569889666,31.72408529690708789,0.68798825776345696,-0.00222769074721483,0.00290516719333622,0.72571258400079897,0.03555555555555556,-0.06444444444444444,0.06333333333333334,1.62000000000000011,0.56000000000000005,9.89000000000000057,70.90000000000000568,70.90000000000000568,11.63276915199999983
1.97014331817626953,28.48109564467890564,189.61237886917328410,31.68695382381921988,0.68783923225768873,-0.00215253702689762,0.00255256751344925,0.72585538611392175,0.03555555555555556,-0.06444444444444444,0.06333333333333334,1.62000000000000011,0.56000000000000005,9.89000000000000057,70.90000000000000568,70.90000000000000568,11.63276915199999983
1.98012852668762207,28.31397961596350044,194.15558987487020204,31.76124167408719856,0.68762534439771061,-0.00225118117387068,0.00235939618843261,0.72605836623158493,0.03555555555555556,-0.06444444444444444,0.06333333333333334,1.62000000000000011,0.56000000000000005,9.89000000000000057,70.90000000000000568,70.90000000000000568,11.63276915199999983
1.99004650115966797,28.19007615865102778,199.36042651741058762,31.94456812964681092,0.68755923167834498,-0.00229442623696538,0.00180117754601282,0.72612243754175132,-0.05777777777777778,-0.01666666666666667,0.04888888888888889,-0.96999999999999997,2.33999999999999986,12.24000000000000021,84.40000000000000568,84.40000000000000568,11.62288854400000027
2.00003242492675781,27.83793216162279194,204.30177852789347526,31.80288759823632105,0.68721731669457109,-0.00197906884853646,0.00260768290211358,0.72644452156478434,-0.05777777777777778,-0.01666666666666667,0.04888888888888889,-0.96999999999999997,2.33999999999999986,12.24000000000000021,84.40000000000000568,84.40000000000000568,11.62288854400000027
2.01014375686645508,27.49137417018745921,209.02002897375220414,31.90316754571034252,0.68677183904372996,-0.00221724970115498,0.00205958834394623,0.72686675738825013,-0.05777777777777778,-0.01666666666666667,0.04888888888888889,-0.96999999999999997,2.33999999999999986,12.24000000000000021,84.40000000000000568,84.40000000000000568,11.62288854400000027
2.02005028724670410,27.16303145787703954,214.32329575245583442,31.81558398451181802,0.68668306522757150,-0.00226906979164556,0.00222217305871502,0.72694998534895372,-0.05777777777777778,-0.01666666666666667,0.04888888888888889,-0.96999999999999997,2.33999999999999986,12.24000000000000021,84.40000000000000568,84.40000000000000568,11.62288854400000027
2.03005981445312500,27.07040833574464500,219.49001342122679148,31.86630518078324315,0.68640184196327036,-0.00220538689665542,0.00200474330289620,0.72721635612955959,-0.00555555555555556,-0.02111111111111111,0.07222222222222222,0.63000000000000000,1.97999999999999998,9.43999999999999950,90.00000000000000000,90.00000000000000000,11.56031136000000004
2.04019379615783691,26.86530919680137686,225.66015785757224421,31.95819133730651984,0.68617862636398952,-0.00211521781686442,0.00096553520568804,0.72742936861016383,-0.00555555555555556,-0.02111111111111111,0.07222222222222222,0.63000000000000000,1.97999999999999998,9.43999999999999950,90.00000000000000000,90.00000000000000000,11.56031136000000004
2.05015063285827637,26.59185700428779242,231.51952018960028568,31.89079750607261943,0.68585564954568312,-0.00193300024412401,0.00083912344979696,0.72773455831653422,-0.00555555555555556,-0.02111111111111111,0.07222222222222222,0.63000000000000000,1.97999999999999998,9.43999999999999950,90.00000000000000000,90.00000000000000000,11.56031136000000004
2.06013345718383789,26.35179380325512355,237.08764034580656244,31.93959409772216063,0.68557497574281101,-0.00227821589375978,0.00050561606835900,0.72799828758038776,-0.00555555555555556,-0.02111111111111111,0.07222222222222222,0.63000000000000000,1.97999999999999998,9.43999999999999950,90.00000000000000000,90.00000000000000000,11.56031136000000004
2.07006621360778809,25.92571064091854893,243.06175637068545825,31.84683666849241845,0.68505664569974256,-0.00248554861623325,0.00030548168238525,0.72848549807915575,-0.00555555555555556,-0.02111111111111111,0.07222222222222222,0.63000000000000000,1.97999999999999998,9.43999999999999950,90.00000000000000000,90.00000000000000000,11.56031136000000004
2.08006691932678223,25.46605892762051226,249.63293921577749757,31.93176360178520667,0.68473634096280578,-0.00211133144190471,0.00044193129524463,0.72878768536600602,-0.02444444444444445,0.01777777777777778,0.08333333333333333,-3.24000000000000021,2.87999999999999989,7.58999999999999986,90.00000000000000000,90.00000000000000000,11.58007257600000095
2.09007501602172852,25.08471100496567274,255.42368885679550772,31.77641392331100079,0.68441252477488068,-0.00191479170250072,0.00105745990242492,0.72909170293082037,-0.02444444444444445,0.01777777777777778,0.08333333333333333,-3.24000000000000021,2.87999999999999989,7.58999999999999986,90.00000000000000000,90.00000000000000000,11.58007257600000095
2.10012912750244141,24.77012789519182334,261.23191637758077377,31.70254321292543054,0.68412942619723582,-0.00183483301349300,0.00097347647391570,0.72935767216257352,-0.02444444444444445,0.01777777777777778,0.08333333333333333,-3.24000000000000021,2.87999999999999989,7.58999999999999986,90.00000000000000000,90.00000000000000000,11.58007257600000095
2.11010241508483887,24.24141108713048709,267.57849014522685138,31.56065357483587874,0.68369219042877305,-0.00185726198998047,0.00130426442176886,0.72976697528658074,-0.02444444444444445,0.01777777777777778,0.08333333333333333,-3.24000000000000021,2.87999999999999989,7.58999999999999986,90.00000000000000000,90.00000000000000000,11.58007257600000095
2.12008142471313477,23.89169436056193874,274.06403067213858549,31.73598070040598529,0.68312552862046982,-0.00216554416538653,0.00031920835363843,0.73029769318511406,-0.02444444444444445,0.01777777777777778,0.08333333333333333,-3.24000000000000021,2.87999999999999989,7.58999999999999986,90.00000000000000000,90.00000000000000000,11.58007257600000095
2.13007307052612305,23.58122521365028845,279.94135152508812325,31.92230681969724415,0.68284499651803410,-0.00231091418089654,0.00032151328452097,0.73055955748668566,-0.02444444444444445,0.01777777777777778,0.08333333333333333,-3.24000000000000021,2.87999999999999989,7.58999999999999986,90.00000000000000000,90.00000000000000000,11.58007257600000095
2.14004230499267578,23.18666488459612651,286.41645323885205698,31.82150667344589223,0.68215989693481338,-0.00218909339336116,-0.00020042651213347,0.73119972833228875,-0.27444444444444444,0.02333333333333333,0.09777777777777778,0.76000000000000001,3.14000000000000012,8.92999999999999972,90.00000000000000000,90.00000000000000000,11.61959500800000100
2.15001463890075684,22.61514559832316351,292.95645839864874915,31.74198427797234956,0.68173670029204625,-0.00196969978050041,0.00048211240570793,0.73159480542532274,-0.27444444444444444,0.02333333333333333,0.09777777777777778,0.76000000000000001,3.14000000000000012,8.92999999999999972,90.00000000000000000,90.00000000000000000,11.61959500800000100
2.16002154350280762,22.32917758661994867,298.76501378251242613,31.64974608997910366,0.68131316340759918,-0.00213304897355766,0.00041625910417040,0.73198883201724074,-0.27444444444444444,0.02333333333333333,0.09777777777777778,0.76000000000000001,3.14000000000000012,8.92999999999999972,90.00000000000000000,90.00000000000000000,11.61959500800000100
2.17005825042724609,21.85744203202272828,305.47247198808031499,31.71920311197594700,0.68087448989783450,-0.00186138487355041,0.00007238089745067,0.73239774645592859,-0.27444444444444444,0.02333333333333333,0.09777777777777778,0.76000000000000001,3.14000000000000012,8.92999999999999972,90.00000000000000000,90.00000000000000000,11.61959500800000100
2.18005204200744629,21.32114061643130754,311.23944529179715346,31.71907253050865805,0.68031711190451005,-0.00208931648494050,0.00030095446935097,0.73291484596298062,-0.04333333333333333,0.07888888888888888,0.12555555555555556,3.75000000000000000,0.91000000000000003,8.83999999999999986,90.00000000000000000,90.00000000000000000,11.63276915199999983
2.19009804725646973,20.94765861071342172,317.84219383108245438,31.79659010262116681,0.68002185066146759,-0.00189884183957323,-0.00000305022718898,0.73318938686625623,-0.04333333333333333,0.07888888888888888,0.12555555555555556,3.75000000000000000,0.91000000000000003,8.83999999999999986,90.00000000000000000,90.00000000000000000,11.63276915199999983
2.20004558563232422,20.38026256154086369,323.64789710665985467,31.60980112670602082,0.67960788069492439,-0.00167207757984144,0.00069741114863021,0.73357334075851632,-0.04333333333333333,0.07888888888888888,0.12555555555555556,3.75000000000000000,0.91000000000000003,8.83999999999999986,90.00000000000000000,90.00000000000000000,11.63276915199999983
2.21009469032287598,19.75272500080587079,330.05567591377592862,31.51950736665419583,0.67900636198783537,-0.00157136816086904,0.00123054363617183,0.73412967311266408,-0.04333333333333333,0.07888888888888888,0.12555555555555556,3.75000000000000000,0.91000000000000003,8.83999999999999986,90.00000000000000000,90.00000000000000000,11.63276915199999983
2.22008490562438965,19.43548914205630140,336.67923324998702128,31.57813568412213456,0.67856265154600159,-0.00194433918063528,0.00030405312630909,0.73453989341880321,-0.04333333333333333,0.07888888888888888,0.12555555555555556,3.75000000000000000,0.91000000000000003,8.83999999999999986,90.00000000000000000,90.00000000000000000,11.63276915199999983
2.23001670837402344,18.99507370191902211,342.60499254309479511,31.61754562214847297,0.67809644597923224,-0.00188684047139070,0.00039279360809684,0.73497040450384876,-0.04333333333333333,0.07888888888888888,0.12555555555555556,3.75000000000000000,0.91000000000000003,8.83999999999999986,90.00000000000000000,90.00000000000000000,11.63276915199999983
2.24005293846130371,18.35016729690387649,349.24360133003392548,31.64113995653719158,0.67747583387204457,-0.00169028918367765,0.00048758051927167,0.73554292852769032,-0.00222222222222222,-0.02333333333333333,0.12111111111111111,1.37000000000000011,1.46999999999999997,9.66999999999999993,90.00000000000000000,90.00000000000000000,11.61630147199999996
2.25006866455078125,18.04018503823829178,355.23684650781569871,31.60952947305408500,0.67716396259492806,-0.00213218598826632,0.00017682001671918,0.73582904963063789,-0.00222222222222222,-0.02333333333333333,0.12111111111111111,1.37000000000000011,1.46999999999999997,9.66999999999999993,90.00000000000000000,90.00000000000000000,11.61630147199999996
2.26013541221618652,17.36100162730151553,361.75447540653027545,31.57422362555860573,0.67663758268850793,-0.00200282892477481,0.00040387695147595,0.73631338929368850,-0.00222222222222222,-0.02333333333333333,0.12111111111111111,1.37000000000000011,1.46999999999999997,9.66999999999999993,90.00000000000000000,90.00000000000000000,11.61630147199999996
2.27009081840515137,16.81049684560384705,368.26825733754088787,31.61111214039214801,0.67616736699742708,-0.00203752451212247,0.00073678046815164,0.73674486591775501,-0.00222222222222222,-0.02333333333333333,0.12111111111111111,1.37000000000000011,1.46999999999999997,9.66999999999999993,90.00000000000000000,90.00000000000000000,11.61630147199999996
2.28003907203674316,16.28674021395828575,374.13000184522599056,31.37922795116845620,0.67577169740051601,-0.00214512886969274,0.00107126592116086,0.73710709113661654,0.00222222222222222,0.01555555555555556,0.12666666666666668,1.26000000000000001,2.49000000000000021,10.13000000000000078,90.00000000000000000,90.00000000000000000,11.64594329600000044
2.29004025459289551,15.74186751367817294,380.73347160009205936,31.43049504279738926,0.67520900149627994,-0.00194635278323762,0.00125611534809247,0.73762282921793565,0.00222222222222222,0.01555555555555556,0.12666666666666668,1.26000000000000001,2.49000000000000021,10.13000000000000078,90.00000000000000000,90.00000000000000000,11.64594329600000044
2.30005550384521484,14.96238951921660032,387.14263336742004640,31.17577117955841004,0.67497911132519872,-0.00181820553626723,0.00240188682347588,0.73783068812767605,0.00222222222222222,0.01555555555555556,0.12666666666666668,1.26000000000000001,2.49000000000000021,10.13000000000000078,90.00000000000000000,90.00000000000000000,11.64594329600000044
2.31003403663635254,14.42667392826645845,393.09769278414751170,31.38824527397844122,0.67447886947924385,-0.00163754443172800,0.00233591987842831,0.73828864040601117,0.00222222222222222,0.01555555555555556,0.12666666666666668,1.26000000000000001,2.49000000000000021,10.13000000000000078,90.00000000000000000,90.00000000000000000,11.64594329600000044
2.32004833221435547,13.99266325983379566,399.76481829984044225,31.30922206841287547,0.67409335970708828,-0.00132962295124948,0.00300814796157455,0.73863883295387223,0.00222222222222222,0.01555555555555556,0.12666666666666668,1.26000000000000001,2.49000000000000021,10.13000000000000078,90.00000000000000000,90.00000000000000000,11.64594329600000044
2.33003401756286621,13.36294273829054369,405.69029612572882115,31.40576934297487810,0.67357544034982553,-0.00109140906999562,0.00291189598349843,0.73911193729066627,0.00666666666666667,0.03000000000000000,0.13111111111111112,0.81999999999999995,1.94999999999999996,9.68999999999999950,90.00000000000000000,90.00000000000000000,11.60971439999999966
2.34003925323486328,12.44486477734479202,412.19117657830207690,31.42800430328559003,0.67302849164088563,-0.00084200262629541,0.00324203484983488,0.73960897079551702,0.00666666666666667,0.03000000000000000,0.13111111111111112,0.81999999999999995,1.94999999999999996,9.68999999999999950,90.00000000000000000,90.00000000000000000,11.60971439999999966
2.35005545616149902,11.74774094920674194,418.77267765563055946,31.55294458229235488,0.67253491120197639,-0.00038919795319371,0.00281487590653122,0.74005994231084682,0.00666666666666667,0.03000000000000000,0.13111111111111112,0.81999999999999995,1.94999999999999996,9.68999999999999950,90.00000000000000000,90.00000000000000000,11.60971439999999966
2.36011600494384766,11.50432568516400345,424.74849058747878416,31.67867015185656498,0.67206560708541629,-0.00075303402706634,0.00224695613795578,0.74048781482261994,0.00666666666666667,0.03000000000000000,0.13111111111111112,0.81999999999999995,1.94999999999999996,9.68999999999999950,90.00000000000000000,90.00000000000000000,11.60971439999999966
2.37005281448364258,11.07602226831456171,431.17031295961027126,31.51252619572086289,0.67151832682917945,-0.00128772694028978,0.00204307612448593,0.74098401084761345,0.00666666666666667,0.03000000000000000,0.13111111111111112,0.81999999999999995,1.94999999999999996,9.68999999999999950,90.00000000000000000,90.00000000000000000,11.60971439999999966
2.38004350662231445,10.43596301034023632,437.00668827715554698,31.22741714806079116,0.67122986158078635,-0.00103684313227896,0.00295202976246250,0.74124266161550556,0.00666666666666667,0.03000000000000000,0.13111111111111112,0.81999999999999995,1.94999999999999996,9.68999999999999950,90.00000000000000000,90.00000000000000000,11.60971439999999966
2.39011192321777344,9.76060953878020676,443.57892836532874981,31.31322503527118428,0.67074322770888006,-0.00082692682146443,0.00293720337105606,0.74168336337756868,-0.01444444444444444,-0.07555555555555556,0.12555555555555556,2.58000000000000007,3.12999999999999989,7.41000000000000014,90.00000000000000000,90.00000000000000000,11.61959500800000100
2.40017175674438477,9.01149003776151325,449.44684865880145708,31.28578796130165429,0.67033852838069530,-0.00048355608402835,0.00330237890943084,0.74204792152222621,-0.01444444444444444,-0.07555555555555556,0.12555555555555556,2.58000000000000007,3.12999999999999989,7.41000000000000014,90.00000000000000000,90.00000000000000000,11.61959500800000100
2.41013383865356445,8.42138128659976104,455.95870918643760206,31.09666011342308067,0.66991795934787468,-0.00072672706856122,0.00342703639702996,0.74242686847424932,-0.01444444444444444,-0.07555555555555556,0.12555555555555556,2.58000000000000007,3.12999999999999989,7.41000000000000014,90.00000000000000000,90.00000000000000000,11.61959500800000100
2.42004609107971191,7.80127439457763217,462.40576016199491960,31.21506121720733162,0.66955614363920790,-0.00031570963840664,0.00369421094432304,0.74275219531679337,-0.01444444444444444,-0.07555555555555556,0.12555555555555556,2.58000000000000007,3.12999999999999989,7.41000000000000014,90.00000000000000000,90.00000000000000000,11.61959500800000100
2.43004441261291504,7.29596430337616653,468.31938717234953629,31.05121872822248363,0.66928733962716147,-0.00039499694886707,0.00373806851512373,0.74299416406589858,0.04777777777777778,0.02333333333333333,0.11333333333333333,0.02000000000000000,1.65999999999999992,7.62000000000000011,90.00000000000000000,90.00000000000000000,11.61300793600000070
2.44004392623901367,6.52367786717151876,474.78616477820952468,31.19377101751910786,0.66857686972771224,-0.00067393245011199,0.00328330410620105,0.74363548529793300,0.04777777777777778,0.02333333333333333,0.11333333333333333,0.02000000000000000,1.65999999999999992,7.62000000000000011,90.00000000000000000,90.00000000000000000,11.61300793600000070
2.45003843307495117,5.77979740529560804,481.18631544598594019,31.03836678214760170,0.66833995545034453,-0.00082685021533000,0.00377984045358462,0.74384590680697937,0.04777777777777778,0.02333333333333333,0.11333333333333333,0.02000000000000000,1.65999999999999992,7.62000000000000011,90.00000000000000000,90.00000000000000000,11.61300793600000070
2.46012544631958008,4.70141871922830479,487.15955969009343107,31.04937470309166869,0.66778639776551152,0.00028218184345452,0.00455978463240018,0.74433893872138357,0.04777777777777778,0.02333333333333333,0.11333333333333333,0.02000000000000000,1.65999999999999992,7.62000000000000011,90.00000000000000000,90.00000000000000000,11.61300793600000070
2.47007966041564941,3.95183758107760275,493.74922939131056410,31.03811456997551943,0.66740989016533603,0.00027189350724800,0.00469584986411389,0.74467571034475732,0.04777777777777778,0.02333333333333333,0.11333333333333333,0.02000000000000000,1.65999999999999992,7.62000000000000011,90.00000000000000000,90.00000000000000000,11.61300793600000070
2.48003983497619629,3.35490683707289383,500.25814337083784267,30.88832086269131949,0.66672488127128116,-0.00029475616291877,0.00473298644488461,0.74528883303851612,0.04777777777777778,0.02333333333333333,0.11333333333333333,0.02000000000000000,1.65999999999999992,7.62000000000000011,90.00000000000000000,90.00000000000000000,11.61300793600000070
2.49002218246459961,2.65369852247074789,506.11283243254911213,30.75545247950346450,0.66621120809277534,-0.00037036392369053,0.00485289959221350,0.74574723493129835,0.00888888888888889,0.03444444444444444,0.11888888888888889,-1.71999999999999997,1.84000000000000008,8.81000000000000050,90.00000000000000000,90.00000000000000000,11.62947561600000057
2.50004220008850098,2.25933656574862596,512.69028748125117545,30.63723950363452175,0.66599158129743175,-0.00092432499899058,0.00442500401562996,0.74594556008042845,0.00888888888888889,0.03444444444444444,0.11888888888888889,-1.71999999999999997,1.84000000000000008,8.81000000000000050,90.00000000000000000,90.00000000000000000,11.62947561600000057
2.51012039184570312,1.51253874784044240,518.59753859390730213,30.82982454840857045,0.66558863062902729,-0.00099671078341815,0.00403225369932647,0.74630725728421965,0.00888888888888889,0.03444444444444444,0.11888888888888889,-1.71999999999999997,1.84000000000000008,8.81000000000000050,90.00000000000000000,90.00000000000000000,11.62947561600000057
2.52003002166748047,0.49117812843922576,525.08963849974145432,30.75337765032681503,0.66487333374057134,-0.00059802483826548,0.00485229568519604,0.74694012321843806,0.00888888888888889,0.03444444444444444,0.11888888888888889,-1.71999999999999997,1.84000000000000008,8.81000000000000050,90.00000000000000000,90.00000000000000000,11.62947561600000057
2.53003501892089844,-0.19985030069998308,530.96038876130785411,30.61202467886405643,0.66455331213972513,-0.00062098706780061,0.00505706874572919,0.74722348447762510,-0.04444444444444445,0.02555555555555556,0.11777777777777777,-1.91999999999999993,0.57999999999999996,9.89000000000000057,90.00000000000000000,90.00000000000000000,11.66241097600000032
2.54007530212402344,-0.95365202821973105,537.91849493829386120,30.74614374688241014,0.66405154138829192,0.00032586637801947,0.00493413719752361,0.74767044777833269,-0.04444444444444445,0.02555555555555556,0.11777777777777777,-1.91999999999999993,0.57999999999999996,9.89000000000000057,90.00000000000000000,90.00000000000000000,11.66241097600000032
2.55003523826599121,-1.45984034588185341,544.72777250925219050,30.43898705637885271,0.66365823628869403,0.00002816347994735,0.00452270148374295,0.74802225219861462,-0.04444444444444445,0.02555555555555556,0.11777777777777777,-1.91999999999999993,0.57999999999999996,9.89000000000000057,90.00000000000000000,90.00000000000000000,11.66241097600000032
2.56011533737182617,-2.40875503550635983,550.64567415719704968,30.60842776328957271,0.66293729774576426,0.00007376656996153,0.00393249096576156,0.74866459067518454,-0.04444444444444445,0.02555555555555556,0.11777777777777777,-1.91999999999999993,0.57999999999999996,9.89000000000000057,90.00000000000000000,90.00000000000000000,11.66241097600000032
2.57013702392578125,-3.28421045511765897,557.27092327713887698,30.90450212632854843,0.66231638130807491,0.00049731412876351,0.00364706348225200,0.74921523119701106,-0.04444444444444445,0.02555555555555556,0.11777777777777777,-1.91999999999999993,0.57999999999999996,9.89000000000000057,90.00000000000000000,90.00000000000000000,11.66241097600000032
2.58008909225463867,-4.04970404873625522,563.14813320635482796,30.71828922148786489,0.66201160622478006,0.00038447117479951,0.00358940736871631,0.74948489081524772,-0.04444444444444445,0.02555555555555556,0.11777777777777777,-1.91999999999999993,0.57999999999999996,9.89000000000000057,90.00000000000000000,90.00000000000000000,11.66241097600000032
2.59006166458129883,-4.55519714988453028,569.66558533493525829,31.09202805828968508,0.66173004834923010,0.00054353887107562,0.00308857625467070,0.74973562565343044,0.02111111111111111,0.00555555555555556,0.12222222222222222,4.80999999999999961,3.24000000000000021,10.36999999999999922,90.00000000000000000,90.00000000000000000,11.62288854400000027
2.60003972053527832,-5.45171941664608983,576.37226645053863194,30.57986018445884113,0.66132052960648680,0.00032241780766107,0.00267232196573007,0.75009860142721529,0.02111111111111111,0.00555555555555556,0.12222222222222222,4.80999999999999961,3.24000000000000021,10.36999999999999922,90.00000000000000000,90.00000000000000000,11.62288854400000027
2.61010861396789551,-6.25823112934243397,581.94685159251571349,30.67295289966637029,0.66092996744339538,0.00019062021726030,0.00310273278814073,0.75044114682528562,0.02111111111111111,0.00555555555555556,0.12222222222222222,4.80999999999999961,3.24000000000000021,10.36999999999999922,90.00000000000000000,90.00000000000000000,11.62288854400000027
2.62005424499511719,-7.13280425989932620,588.56455024935269194,30.68900145952682479,0.66049192282012126,0.00033816115220498,0.00276367788756754,0.75082798803783812,0.02111111111111111,0.00555555555555556,0.12222222222222222,4.80999999999999961,3.24000000000000021,10.36999999999999922,90.00000000000000000,90.00000000000000000,11.62288854400000027
2.63004159927368164,-8.17435050001624042,594.41049324854850511,30.90068234791767665,0.65992297417899148,0.00103367041423357,0.00330021081259612,0.75132530124096120,-0.10555555555555556,-0.08666666666666667,0.09888888888888889,0.14999999999999999,-0.03000000000000000,7.99000000000000021,90.00000000000000000,90.00000000000000000,11.64264976000000118
2.64011597633361816,-9.26978001446390998,600.86149711569078136,30.79828927402614980,0.65945813188149049,0.00102827268792683,0.00339899046750338,0.75173290590106268,-0.10555555555555556,-0.08666666666666667,0.09888888888888889,0.14999999999999999,-0.03000000000000000,7.99000000000000021,90.00000000000000000,90.00000000000000000,11.64264976000000118
2.65022230148315430,-9.70825312511936112,607.24490231001152551,30.73207387643887145,0.65912019658981658,0.00050259205739867,0.00298578563844439,0.75203151458748529,-0.10555555555555556,-0.08666666666666667,0.09888888888888889,0.14999999999999999,-0.03000000000000000,7.99000000000000021,90.00000000000000000,90.00000000000000000,11.64264976000000118
2.66012763977050781,-10.50621868671774450,613.03706289346303038,30.75053810484171279,0.65855744126788540,0.00044556299155498,0.00281064722198958,0.75252508149995256,-0.10555555555555556,-0.08666666666666667,0.09888888888888889,0.14999999999999999,-0.03000000000000000,7.99000000000000021,90.00000000000000000,90.00000000000000000,11.64264976000000118
2.67013454437255859,-11.17970992655119744,619.46561100158294266,30.38828430670318781,0.65834877323483332,0.00042151094693196,0.00339272014952625,0.75270525742730010,-0.10555555555555556,-0.08666666666666667,0.09888888888888889,0.14999999999999999,-0.03000000000000000,7.99000000000000021,90.00000000000000000,90.00000000000000000,11.64264976000000118
2.68012976646423340,-11.79760578878888033,625.34678803605368103,30.49869382696802234,0.65815337098258442,0.00015715254239887,0.00284696454289695,0.75287848313006700,-0.10555555555555556,-0.08666666666666667,0.09888888888888889,0.14999999999999999,-0.03000000000000000,7.99000000000000021,90.00000000000000000,90.00000000000000000,11.64264976000000118
2.69013547897338867,-12.67426127779328304,631.81643961836300605,30.33832146319842948,0.65811719135649549,0.00081871481322798,0.00378838922762724,0.75290553209161148,-0.05888888888888889,0.04000000000000000,0.10666666666666667,2.16000000000000014,1.90999999999999992,6.87999999999999989,90.00000000000000000,90.00000000000000000,11.64264976000000118
2.70026588439941406,-13.79135166303602489,638.40061200832485611,30.41905028832767854,0.65753602755995144,0.00103483082167463,0.00366757697516890,0.75341346581075930,-0.05888888888888889,0.04000000000000000,0.10666666666666667,2.16000000000000014,1.90999999999999992,6.87999999999999989,90.00000000000000000,90.00000000000000000,11.64264976000000118
2.71015024185180664,-14.42966824312462393,644.33911316383807844,30.64356956113499564,0.65715576160731026,0.00113549887688281,0.00342996141708094,0.75374614492764991,-0.05888888888888889,0.04000000000000000,0.10666666666666667,2.16000000000000014,1.90999999999999992,6.87999999999999989,90.00000000000000000,90.00000000000000000,11.64264976000000118
2.72013664245605469,-15.42337312644207792,650.76695077791714539,30.56833534761567606,0.65666891334526600,0.00104661026144695,0.00325558686664773,0.75417122989879548,-0.05888888888888889,0.04000000000000000,0.10666666666666667,2.16000000000000014,1.90999999999999992,6.87999999999999989,90.00000000000000000,90.00000000000000000,11.64264976000000118
2.73008131980895996,-16.52306990955514365,656.51642138686747785,30.58459160438792424,0.65608434714606378,0.00101715338075272,0.00335768243435152,0.75467941590955900,-0.04888888888888889,-0.00888888888888889,0.11888888888888889,1.87999999999999989,1.56000000000000005,9.28999999999999915,90.00000000000000000,90.00000000000000000,11.64264976000000118
2.74010515213012695,-17.30049367522750359,662.96905873281696131,30.49522098213381938,0.65591482310117843,0.00114962526528825,0.00369036141146567,0.75482501576892091,-0.04888888888888889,-0.00888888888888889,0.11888888888888889,1.87999999999999989,1.56000000000000005,9.28999999999999915,90.00000000000000000,90.00000000000000000,11.64264976000000118
2.75006270408630371,-18.04097309058971277,669.42076415564827130,30.55381490861206828,0.65539406395168176,0.00115607281279269,0.00397750048806121,0.75527575356449672,-0.04888888888888889,-0.00888888888888889,0.11888888888888889,1.87999999999999989,1.56000000000000005,9.28999999999999915,90.00000000000000000,90.00000000000000000,11.64264976000000118
2.76010942459106445,-18.81400604290440626,675.43476774169857890,30.49038159410442361,0.65517382306093130,0.00118272722960308,0.00378726121070674,0.75546774873884948,-0.04888888888888889,-0.00888888888888889,0.11888888888888889,1.87999999999999989,1.56000000000000005,9.28999999999999915,90.00000000000000000,90.00000000000000000,11.64264976000000118
2.77014064788818359,-19.40701055863386770,682.04445866186790681,30.88212787790947900,0.65490229841416381,0.00051350405048699,0.00255625876575772,0.75570905869028604,-0.04888888888888889,-0.00888888888888889,0.11888888888888889,1.87999999999999989,1.56000000000000005,9.28999999999999915,90.00000000000000000,90.00000000000000000,11.64264976000000118
2.78012919425964355,-20.63883116335223633,687.76468104484285959,30.86255401356389783,0.65424166393877325,0.00088824276217641,0.00291017976985565,0.75627943714286427,-0.04888888888888889,-0.00888888888888889,0.11888888888888889,1.87999999999999989,1.56000000000000005,9.28999999999999915,90.00000000000000000,90.00000000000000000,11.64264976000000118
2.79012131690979004,-21.64791458110849476,694.23963378524047130,30.78479229246370252,0.65389438795928456,0.00081861376854605,0.00339412211157521,0.75657778132981257,-0.04888888888888889,-0.00888888888888889,0.11888888888888889,1.87999999999999989,1.56000000000000005,9.28999999999999915,90.00000000000000000,90.00000000000000000,11.64264976000000118
2.80025005340576172,-22.61548624278033870,700.72918803696700252,30.78535524160373527,0.65335324153052998,0.00065373694413460,0.00302453323893953,0.75704687213424493,-0.04111111111111111,0.03000000000000000,0.12111111111111111,-2.22999999999999998,2.56999999999999984,9.77999999999999936,90.00000000000000000,90.00000000000000000,11.63276915199999983
2.81021356582641602,-23.19670971286931760,706.72297583364218099,30.83477185951192823,0.65323432006825943,0.00051600516524568,0.00251722683419783,0.75715145142348705,-0.04111111111111111,0.03000000000000000,0.12111111111111111,-2.22999999999999998,2.56999999999999984,9.77999999999999936,90.00000000000000000,90.00000000000000000,11.63276915199999983
2.82012605667114258,-24.28546747007800022,713.17545117571444280,30.94845368211710124,0.65252848530707352,0.00071009104324116,0.00267788860885858,0.75775913095532221,0.01333333333333333,0.01777777777777778,0.11666666666666667,1.83000000000000007,1.64999999999999991,7.96999999999999975,90.00000000000000000,90.00000000000000000,11.63606268800000088
2.83012533187866211,-25.19236417937082351,718.97696531475992288,30.77031196829826953,0.65201099188052292,0.00044847953306847,0.00263436818239308,0.75820480441458848,0.01333333333333333,0.01777777777777778,0.11666666666666667,1.83000000000000007,1.64999999999999991,7.96999999999999975,90.00000000000000000,90.00000000000000000,11.63606268800000088
2.84014701843261719,-26.12723966387478924,725.46410813434431475,30.71526403127744231,0.65141549905453777,0.00027748402040976,0.00270961800305634,0.75871630308332194,0.01333333333333333,0.01777777777777778,0.11666666666666667,1.83000000000000007,1.64999999999999991,7.96999999999999975,90.00000000000000000,90.00000000000000000,11.63606268800000088
2.85012722015380859,-27.04970042676032094,731.98714765065642496,30.59447830415582814,0.65109730679887590,0.00057982267072179,0.00297495086776521,0.75898821502857039,0.01333333333333333,0.01777777777777778,0.11666666666666667,1.83000000000000007,1.64999999999999991,7.96999999999999975,90.00000000000000000,90.00000000000000000,11.63606268800000088
2.86008834838867188,-28.07880269354202696,737.83787120645899904,30.59885702970944621,0.65065067358385509,0.00104457729712626,0.00341541294411639,0.75936878048650847,0.01333333333333333,0.01777777777777778,0.11666666666666667,1.83000000000000007,1.64999999999999991,7.96999999999999975,90.00000000000000000,90.00000000000000000,11.63606268800000088
2.87012648582458496,-29.29043132020720819,744.29051007004670737,30.68878133835735866,0.65048482041793476,0.00122160569475482,0.00360571418969911,0.75950971350638796,0.01333333333333333,0.01777777777777778,0.11666666666666667,1.83000000000000007,1.64999999999999991,7.96999999999999975,90.00000000000000000,90.00000000000000000,11.63606268800000088
2.88012671470642090,-30.38609573928618701,750.06560778261427913,30.52654167390843654,0.64997958832783087,0.00159322449629877,0.00415688239865357,0.75993862694405223,0.01333333333333333,0.01777777777777778,0.11666666666666667,1.83000000000000007,1.64999999999999991,7.96999999999999975,90.00000000000000000,90.00000000000000000,11.63606268800000088
2.89012622833251953,-31.07711578622293658,756.55380972715749976,30.33964567956597236,0.64959653378513527,0.00138063745892447,0.00407551251351097,0.76026694478472334,0.01333333333333333,0.01777777777777778,0.11666666666666667,1.83000000000000007,1.64999999999999991,7.96999999999999975,90.00000000000000000,90.00000000000000000,11.63606268800000088
2.90021491050720215,-31.93374516595206103,763.03523259798919298,30.33324597970575098,0.64916697946823076,0.00070635299381261,0.00313638967167673,0.76063913710337638,-0.01111111111111111,-0.26333333333333331,0.11000000000000000,-0.80000000000000004,1.69999999999999996,9.39000000000000057,90.00000000000000000,90.00000000000000000,11.65253036800000075
2.91013050079345703,-32.78907740424961048,768.84350821533610087,30.19973542899343855,0.64855322060748033,0.00046684893066028,0.00340199629900939,0.76116156531509271,-0.01111111111111111,-0.26333333333333331,0.11000000000000000,-0.80000000000000004,1.69999999999999996,9.39000000000000057,90.00000000000000000,90.00000000000000000,11.65253036800000075
2.92007517814636230,-33.77760946640571404,775.45601251884909288,30.22124858124019298,0.64829907155066435,0.00052395778531584,0.00275718157580227,0.76138061260091427,-0.01111111111111111,-0.26333333333333331,0.11000000000000000,-0.80000000000000004,1.69999999999999996,9.39000000000000057,90.00000000000000000,90.00000000000000000,11.65253036800000075
2.93009853363037109,-34.99861844250192888,782.02794989475023613,30.24299949965545053,0.64775714514269900,0.00054657705202936,0.00280959276425966,0.76184151131229783,-0.04666666666666667,-0.02888888888888889,0.13555555555555557,-0.26000000000000001,1.70999999999999996,7.05999999999999961,90.00000000000000000,90.00000000000000000,11.64264976000000118
2.94012665748596191,-35.74999508609815280,787.75655201300617136,30.20402089427610193,0.64734796949034168,0.00002756137562826,0.00259961522896347,0.76219016500986381,-0.04666666666666667,-0.02888888888888889,0.13555555555555557,-0.26000000000000001,1.70999999999999996,7.05999999999999961,90.00000000000000000,90.00000000000000000,11.64264976000000118
2.95025777816772461,-36.70816107837846687,794.24005868362428373,30.21387663546998326,0.64668868933005286,-0.00079604443806112,0.00130770897697160,0.76275251248557874,-0.04666666666666667,-0.02888888888888889,0.13555555555555557,-0.26000000000000001,1.70999999999999996,7.05999999999999961,90.00000000000000000,90.00000000000000000,11.64264976000000118
2.96015620231628418,-37.62035162068219307,800.81272539751228123,30.34071074786483635,0.64628369070395186,-0.00092589245666599,0.00066392547617511,0.76309638516782363,-0.04666666666666667,-0.02888888888888889,0.13555555555555557,-0.26000000000000001,1.70999999999999996,7.05999999999999961,90.00000000000000000,90.00000000000000000,11.64264976000000118
2.97011351585388184,-38.45603141133972969,806.73212506935340116,30.25965190894042323,0.64603281882181118,-0.00120419429958832,0.00044695578236444,0.76330855304507295,-0.04666666666666667,-0.02888888888888889,0.13555555555555557,-0.26000000000000001,1.70999999999999996,7.05999999999999961,90.00000000000000000,90.00000000000000000,11.64264976000000118
2.98019862174987793,-39.85121920186743694,813.08004524086982201,30.28493714371937884,0.64542937122666766,-0.00080426120423494,0.00141746297202881,0.76381821837436359,-0.04666666666666667,-0.02888888888888889,0.13555555555555557,-0.26000000000000001,1.70999999999999996,7.05999999999999961,90.00000000000000000,90.00000000000000000,11.64264976000000118
2.99012875556945801,-40.80361836019373101,819.04663192515988612,29.94869340642296152,0.64499648244798591,-0.00114266044172377,0.00155265645984932,0.76418310712469817,-0.04666666666666667,-0.02888888888888889,0.13555555555555557,-0.26000000000000001,1.70999999999999996,7.05999999999999961,90.00000000000000000,90.00000000000000000,11.64264976000000118
3.00014615058898926,-41.79304311208846201,825.57448330890656507,29.98587743389572680,0.64456688277129803,-0.00099120749777851,0.00190035015942702,0.76454492334424662,-0.02000000000000000,-0.02000000000000000,0.13111111111111112,-1.10000000000000009,3.00000000000000000,14.75000000000000000,90.00000000000000000,90.00000000000000000,11.61630147199999996
3.01015806198120117,-42.79738131491421882,831.36482626476879432,29.84502024028990874,0.64418638941719963,-0.00072458752451385,0.00228807550280749,0.76486478241127387,-0.02000000000000000,-0.02000000000000000,0.13111111111111112,-1.10000000000000009,3.00000000000000000,14.75000000000000000,90.00000000000000000,90.00000000000000000,11.61630147199999996
3.02014923095703125,-43.92662621893909858,837.92231779480414389,29.90725592653590681,0.64354335169307664,-0.00134173813569620,0.00178410680309590,0.76540640916661495,-0.02000000000000000,-0.02000000000000000,0.13111111111111112,-1.10000000000000009,3.00000000000000000,14.75000000000000000,90.00000000000000000,90.00000000000000000,11.61630147199999996
3.03014969825744629,-45.20282528645714137,844.36290188143073010,30.05061628378278726,0.64329418033899044,-0.00110819578876867,0.00200975571457805,0.76561565444160573,-0.03222222222222222,-0.22333333333333333,0.12888888888888889,-2.06999999999999984,2.18999999999999995,10.90000000000000036,90.00000000000000000,90.00000000000000000,11.64594329600000044
3.04014086723327637,-46.36625597399693532,850.29694125033199725,30.07731609628423897,0.64266581585259264,-0.00119907599136842,0.00170151260394392,0.76614379603710592,-0.03222222222222222,-0.22333333333333333,0.12888888888888889,-2.06999999999999984,2.18999999999999995,10.90000000000000036,90.00000000000000000,90.00000000000000000,11.64594329600000044
3.05008912086486816,-47.36168122586345675,856.63347066065205127,30.01186777212310020,0.64195004515979959,-0.00146733189539993,0.00171099922112410,0.76674315056484543,-0.03222222222222222,-0.22333333333333333,0.12888888888888889,-2.06999999999999984,2.18999999999999995,10.90000000000000036,90.00000000000000000,90.00000000000000000,11.64594329600000044
3.06009531021118164,-48.34698560437442438,862.60674287480321709,29.88488857655289976,0.64146109748368385,-0.00159724279274156,0.00131985036988545,0.76715276655011111,-0.03222222222222222,-0.22333333333333333,0.12888888888888889,-2.06999999999999984,2.18999999999999995,10.90000000000000036,90.00000000000000000,90.00000000000000000,11.64594329600000044
3.07005620002746582,-49.35988206044876137,869.07012320795820415,30.11760536229807528,0.64126571526627096,-0.00144586843919597,0.00133197357937096,0.76731637395202124,-0.03222222222222222,-0.22333333333333333,0.12888888888888889,-2.06999999999999984,2.18999999999999995,10.90000000000000036,90.00000000000000000,90.00000000000000000,11.64594329600000044
3.08003854751586914,-50.08242146198518441,875.01254939184309478,30.05390741672189847,0.64106280613288502,-0.00163688006518858,0.00109412275989245,0.76748589701184078,-0.03222222222222222,-0.22333333333333333,0.12888888888888889,-2.06999999999999984,2.18999999999999995,10.90000000000000036,90.00000000000000000,90.00000000000000000,11.64594329600000044
3.09004926681518555,-51.26967310115166043,881.58514608308939842,30.10256835245604989,0.64040009587946067,-0.00152840682927794,0.00094425402349450,0.76803938021072926,-0.03222222222222222,-0.22333333333333333,0.12888888888888889,-2.06999999999999984,2.18999999999999995,10.90000000000000036,90.00000000000000000,90.00000000000000000,11.64594329600000044
3.10004425048828125,-52.50132695308806063,888.05139546280327068,29.90035569751208655,0.63989376868465231,-0.00172335448835308,0.00093501598251515,0.76846087772441141,-0.03222222222222222,-0.22333333333333333,0.12888888888888889,-2.06999999999999984,2.18999999999999995,10.90000000000000036,90.00000000000000000,90.00000000000000000,11.64594329600000044
3.11012053489685059,-53.42303184812627137,893.99367379989462279,29.99776636882792502,0.63936996546708402,-0.00189158075544379,0.00039554581529078,0.76889681539487065,-0.03222222222222222,-0.22333333333333333,0.12888888888888889,-2.06999999999999984,2.18999999999999995,10.90000000000000036,90.00000000000000000,90.00000000000000000,11.64594329600000044
3.12003755569458008,-55.07406987047219360,900.37929986276651562,30.13567971335742968,0.63879762547468488,-0.00119870306794887,0.00110304678201548,0.76937308250721570,-0.03222222222222222,-0.22333333333333333,0.12888888888888889,-2.06999999999999984,2.18999999999999995,10.90000000000000036,90.00000000000000000,90.00000000000000000,11.64594329600000044
3.13003897666931152,-56.35758585391992170,906.16588379305528633,30.01948286503524344,0.63759880081578368,-0.00119047410396703,0.00103833668091980,0.77036697347862670,-0.03222222222222222,-0.22333333333333333,0.12888888888888889,-2.06999999999999984,2.18999999999999995,10.90000000000000036,90.00000000000000000,90.00000000000000000,11.64594329600000044
3.14014291763305664,-57.49148807088550228,912.50616322325959118,29.93294868613939386,0.63703834400781423,-0.00111618133814619,0.00172317841735012,0.77082937999218970,-0.03222222222222222,-0.22333333333333333,0.12888888888888889,-2.06999999999999984,2.18999999999999995,10.90000000000000036,90.00000000000000000,90.00000000000000000,11.64594329600000044
3.15025758743286133,-58.67177387626670537,918.80804480887888985,29.66601855692626089,0.63682969165993353,-0.00105643453964376,0.00279973862188613,0.77099869599761717,-0.03222222222222222,-0.22333333333333333,0.12888888888888889,-2.06999999999999984,2.18999999999999995,10.90000000000000036,90.00000000000000000,90.00000000000000000,11.64594329600000044
3.16012072563171387,-60.01751692838371355,924.80839816596960645,29.90497646823495259,0.63627909778410363,-0.00036935366490628,0.00281705967583249,0.77145371700167475,-0.03222222222222222,-0.22333333333333333,0.12888888888888889,-2.06999999999999984,2.18999999999999995,10.90000000000000036,90.00000000000000000,90.00000000000000000,11.64594329600000044
3.17002844810485840,-61.02890067363660620,931.42967022065931815,29.79473884948906814,0.63607329208714547,-0.00056229676077963,0.00235267409516299,0.77162485434333661,-0.03222222222222222,-0.22333333333333333,0.12888888888888889,-2.06999999999999984,2.18999999999999995,10.90000000000000036,90.00000000000000000,90.00000000000000000,11.64594329600000044
3.18003773689270020,-61.92541942915696751,937.23440490753102949,29.77547746889687730,0.63588199391829225,-0.00067109849087550,0.00231383367591584,0.77178253777280581,-0.03000000000000000,-0.03666666666666667,0.11555555555555555,-2.04999999999999982,1.56000000000000005,6.15000000000000036,58.89999999999999858,58.89999999999999858,11.63276915199999983
3.19004154205322266,-62.89362662078735866,943.79190889770427475,29.95882436737693055,0.63574445027233795,-0.00034832771169953,0.00221253034525699,0.77189635141332213,-0.03000000000000000,-0.03666666666666667,0.11555555555555555,-2.04999999999999982,1.56000000000000005,6.15000000000000036,58.89999999999999858,58.89999999999999858,11.63276915199999983
3.20003151893615723,-64.23987476244762718,950.01094330222360895,29.54957984640989821,0.63512520178592635,-0.00024036646465530,0.00325009531263786,0.77240232855734436,-0.03000000000000000,-0.03666666666666667,0.11555555555555555,-2.04999999999999982,1.56000000000000005,6.15000000000000036,58.89999999999999858,58.89999999999999858,11.63276915199999983
3.21010088920593262,-65.27936892973205829,955.30286613709006360,29.51065525712077431,0.63432531473810949,-0.00071837493027345,0.00392938073761865,0.77305590935383006,-0.20222222222222222,0.00666666666666667,0.12000000000000000,-1.57000000000000006,1.14999999999999991,9.22000000000000064,-0.00000000000000000,0.00000000000000000,11.71840108800000024
3.22002577781677246,-66.57833148096692355,960.84435878874694481,29.22924161856231606,0.63365384112747503,-0.00190263779440847,0.00480535880812053,0.77359944294224070,-0.20222222222222222,0.00666666666666667,0.12000000000000000,-1.57000000000000006,1.14999999999999991,9.22000000000000064,-0.00000000000000000,0.00000000000000000,11.71840108800000024
3.23004126548767090,-67.26544739607903978,965.44162899346281392,29.26863443970458789,0.63343689995117303,-0.00329554158172499,0.00556044616369755,0.77376735174365652,-0.20222222222222222,0.00666666666666667,0.12000000000000000,-1.57000000000000006,1.14999999999999991,9.22000000000000064,-0.00000000000000000,0.00000000000000000,11.71840108800000024
3.24013113975524902,-68.49742398548687561,970.21196412592041725,28.59962980165161639,0.63248899990537166,-0.00548393312648970,0.00749238647439169,0.77451368975705359,-0.01777777777777778,0.37000000000000000,0.18111111111111111,-9.30000000000000071,1.52000000000000002,9.73000000000000043,-0.00000000000000000,0.00000000000000000,11.67887865600000019
3.25004220008850098,-69.33463994316768719,974.08980272357496233,28.45785214273005792,0.63161160886949619,-0.00802413304799103,0.00992094736283090,0.77517995564484132,-0.01777777777777778,0.37000000000000000,0.18111111111111111,-9.30000000000000071,1.52000000000000002,9.73000000000000043,-0.00000000000000000,0.00000000000000000,11.67887865600000019
3.26012229919433594,-70.30159057397038680,977.27765841670816371,28.48888617435250126,0.63085631577367574,-0.01069480499447541,0.01314348316412404,0.77571462461713891,-0.01777777777777778,0.37000000000000000,0.18111111111111111,-9.30000000000000071,1.52000000000000002,9.73000000000000043,-0.00000000000000000,0.00000000000000000,11.67887865600000019
3.27012658119201660,-70.65747442406842538,980.04093524213533328,28.18901148913007049,0.63050996875639553,-0.01390769324043679,0.01488192908588155,0.77591383771281086,-0.04888888888888889,0.32444444444444442,0.12666666666666668,-3.89000000000000012,1.13999999999999990,11.46000000000000085,-0.00000000000000000,0.00000000000000000,11.68546572800000050
3.28013873100280762,-70.92824759496879494,982.54188349141986691,28.29935221101576914,0.63053594362783805,-0.01702555309599060,0.01695103074334254,0.77578812628955984,-0.04888888888888889,0.32444444444444442,0.12666666666666668,-3.89000000000000012,1.13999999999999990,11.46000000000000085,-0.00000000000000000,0.00000000000000000,11.68546572800000050
3.29013395309448242,-71.44980841994279785,984.54551300941238878,28.10200029268623112,0.63010801857992005,-0.01993904286995678,0.01946985887973926,0.77600724486690220,-0.04888888888888889,0.32444444444444442,0.12666666666666668,-3.89000000000000012,1.13999999999999990,11.46000000000000085,-0.00000000000000000,0.00000000000000000,11.68546572800000050
3.30023169517517090,-71.82694453095142251,986.51334500960808782,28.04053944462722470,0.62975013740215702,-0.02294327254265488,0.02171015560811092,0.77615529363038538,0.02444444444444445,0.50666666666666671,0.13000000000000000,-3.27999999999999980,1.89999999999999991,8.98000000000000043,-0.00000000000000000,0.00000000000000000,11.66899804800000062
3.31008195877075195,-71.64912704819217026,988.08335355945519041,28.13407957803056192,0.62978395816208521,-0.02608680352757890,0.02298239309691651,0.77599191640825083,0.02444444444444445,0.50666666666666671,0.13000000000000000,-3.27999999999999980,1.89999999999999991,8.98000000000000043,-0.00000000000000000,0.00000000000000000,11.66899804800000062
3.32011413574218750,-71.89028836976977743,989.44302045357142106,28.21312269956473173,0.62958125304775314,-0.02910633561764346,0.02458996664606683,0.77599974264047222,0.02444444444444445,0.50666666666666671,0.13000000000000000,-3.27999999999999980,1.89999999999999991,8.98000000000000043,-0.00000000000000000,0.00000000000000000,11.66899804800000062
3.33011817932128906,-72.07928735988515712,990.27823930077317982,28.27777904171456669,0.62948987259504541,-0.03149296140636400,0.02699797495576651,0.77590063992138725,-0.00222222222222222,0.68555555555555558,0.08444444444444445,-3.95000000000000018,1.59000000000000008,9.18999999999999950,-0.00000000000000000,0.00000000000000000,11.66899804800000062
3.34014272689819336,-72.18163376895932970,990.65228258897616342,28.06117140569135771,0.62924925578450153,-0.03413837590894329,0.02926540993889671,0.77590172133206314,-0.00222222222222222,0.68555555555555558,0.08444444444444445,-3.95000000000000018,1.59000000000000008,9.18999999999999950,-0.00000000000000000,0.00000000000000000,11.66899804800000062
3.35024809837341309,-72.23614302880166349,990.78349821354561300,27.96115889244209995,0.62912548584082995,-0.03681549107975925,0.03156731500850112,0.77578943490179697,-0.00222222222222222,0.68555555555555558,0.08444444444444445,-3.95000000000000018,1.59000000000000008,9.18999999999999950,-0.00000000000000000,0.00000000000000000,11.66899804800000062
3.36011838912963867,-72.29985306681702184,990.65607137524591508,27.94093664330417326,0.62893203480887871,-0.03882072582394067,0.03349125965827829,0.77576786628744054,-0.00222222222222222,0.68555555555555558,0.08444444444444445,-3.95000000000000018,1.59000000000000008,9.18999999999999950,-0.00000000000000000,0.00000000000000000,11.66899804800000062
3.37014007568359375,-72.19976769312202691,990.61975829074810918,28.00454996412507214,0.62872437962389016,-0.04082602712161057,0.03471684861335268,0.77577936966535599,-0.00222222222222222,0.68555555555555558,0.08444444444444445,-3.95000000000000018,1.59000000000000008,9.18999999999999950,-0.00000000000000000,0.00000000000000000,11.66899804800000062
3.38012862205505371,-72.33934887516029733,990.63693876314107456,27.94159333258456357,0.62868747355633015,-0.04139060179900762,0.03561527652729712,0.77573863559446288,-0.01111111111111111,0.75444444444444447,0.01666666666666667,-4.49000000000000021,1.83000000000000007,9.50000000000000000,-0.00000000000000000,0.00000000000000000,11.66241097600000032
3.39013242721557617,-72.43768289083173784,990.82594620600855251,28.00471756476802554,0.62861795242708474,-0.04127346653260540,0.03566283000090260,0.77579902900370268,-0.01111111111111111,0.75444444444444447,0.01666666666666667,-4.49000000000000021,1.83000000000000007,9.50000000000000000,-0.00000000000000000,0.00000000000000000,11.66241097600000032
3.40013313293457031,-72.52001886743967418,990.92407524086274861,27.96606658287579350,0.62883454757163559,-0.04047482579102313,0.03541854716399286,0.77567675405052205,-0.01111111111111111,0.75444444444444447,0.01666666666666667,-4.49000000000000021,1.83000000000000007,9.50000000000000000,-0.00000000000000000,0.00000000000000000,11.66241097600000032
3.41013479232788086,-72.36306898224238182,990.97048907472583323,27.98346340435942992,0.62920443354530153,-0.03981097464966253,0.03418041662156898,0.77546667641102163,-0.01111111111111111,0.75444444444444447,0.01666666666666667,-4.49000000000000021,1.83000000000000007,9.50000000000000000,-0.00000000000000000,0.00000000000000000,11.66241097600000032
3.42013335227966309,-72.29501049590911066,990.95738157881703501,28.00915034761727540,0.62944444207468564,-0.03799230204636521,0.03272535240184164,0.77542590273776701,-0.01111111111111111,0.75444444444444447,0.01666666666666667,-4.49000000000000021,1.83000000000000007,9.50000000000000000,-0.00000000000000000,0.00000000000000000,11.66241097600000032
